t,ax,ay,az,gx,gy,gz
0.5810321999961161,0.0,0.0,0.0,-0.002411821841381574,-0.06318960780761253,0.0003396688722323699
0.6048187999986112,0.0,0.0,0.0,0.0009319942266373375,0.003659320687151988,1.8497851614715805e-05
0.7250402999998187,0.0,0.0,0.0,9.131814436195706e-05,0.00242479249905876,0.00018288568490954597
0.7463156000012532,0.0,0.0,0.0,-1.5513454182870406e-05,-0.00011712174349690935,0.00028791353851585804
0.7950214000011329,0.0,0.0,0.0,-2.3759054407640764e-05,-0.0005704969099568054,0.00040284279610374265
0.843496800000139,0.0,0.0,0.0,4.264350732768815e-05,0.0002912818958217801,0.00038942410553096383
0.8956462999994983,0.0,0.0,0.0,-1.2891689765491176e-05,-0.00036507163780961693,0.0003357034626715332
0.9432914999997593,0.0,0.0,0.0,9.310507546079143e-06,0.00012964692344217768,-3.739144550284227e-05
0.9965124000009382,0.0,0.0,0.0,4.109601076455252e-05,0.0004368345690676554,0.00017707527961097127
1.0442126999987522,0.0,0.0,0.0,2.681642206681785e-05,0.0004291526281001909,0.0002398373092782521
1.0956335000009858,0.0,0.0,0.0,8.031658793177076e-06,0.0003299520401476435,0.00019271590335825798
1.1431500999970012,0.0,0.0,0.0,-2.3407561950024824e-05,-0.0011600930743184497,-0.00012579686403810193
1.1928610999966622,0.0,0.0,0.0,9.826830721829102e-06,-3.268946924085827e-05,-0.00023668036853558602
1.2438556999986758,0.0,0.0,0.0,-4.409542342516524e-05,0.0004937915762510525,-0.00018570918593406306
1.2935617999974056,0.0,0.0,0.0,3.310126747547877e-05,0.0002492127943570432,-9.442671150511136e-05
1.343917500002135,0.0,0.0,0.0,-7.659378096304655e-05,-0.0010494041347176885,0.00010476108799200937
1.3947782999966876,0.0,0.0,0.0,-6.290977440570163e-06,-9.714837934979218e-05,0.0003049515454262038
1.4426926000014646,0.0,0.0,0.0,0.000110034311820252,0.001061925172625221,0.00045224234391131126
1.4922730999969644,0.0,0.0,0.0,-3.345365660022286e-05,0.0005031683423671306,0.0002544969901531403
1.5433053000015207,0.0,0.0,0.0,-1.0924696278148128e-05,-0.0004248634273655245,0.00048070625165743953
1.591875699996308,0.0,0.0,0.0,-2.738023366923234e-05,-0.00038271060272521953,0.0004087277329943741
1.6437863999963156,0.0,0.0,0.0,6.400727373743197e-05,0.0005380617792159052,0.00017755454728139703
1.6947765000004438,0.0,0.0,0.0,-8.174009994464106e-05,-0.0007735843292382297,0.0002880908329609403
1.7454833000010694,0.0,0.0,0.0,5.699599587771667e-05,0.00021296671898103135,0.0003133744968282383
1.7934607999995933,0.0,0.0,0.0,-3.121976101173358e-05,1.4057129364639793e-05,0.0003191964864812913
1.844122199996491,0.0,0.0,0.0,4.351163687070522e-05,0.0003606792677742136,0.0002663888423971182
1.8950256999960402,0.0,0.0,0.0,-5.052485510147563e-06,-0.00011729938245887942,0.0003613825423769587
1.9466490999984671,0.0,0.0,0.0,-2.7605157582223262e-05,0.0007010239425337676,0.00017406503380046763
1.9940007999975933,0.0,0.0,0.0,3.724989506853782e-07,-0.0001411400061146772,0.00012216305705100078
2.044394700002158,0.0,0.0,0.0,-2.5556858697463386e-05,-0.0008084262612380003,0.0002516268325829339
2.0929493000003276,0.0,0.0,0.0,2.2068441015591518e-05,-0.00016829450499877954,0.0004045131278777786
2.1437471000026562,0.0,0.0,0.0,2.9513501478978142e-05,-0.00014161848811593806,0.0001123741761270673
2.195239599997876,0.0,0.0,0.0,-5.026452319958913e-06,0.00043316907048321254,0.0001500109793795213
2.2437998999957927,0.0,0.0,0.0,-5.468322209950958e-05,0.0003146778117874049,0.0002686303627879315
2.3018251999965287,0.0,0.0,0.0,-7.324308247830284e-05,0.0006489833218720157,0.0002585167773785296
2.3514589999977034,0.0,0.0,0.0,0.00015110153681352202,-0.0009813051792906446,0.000309327789451899
2.398703899998509,0.0,0.0,0.0,-5.3942245123398595e-05,-0.00025741645909085203,0.00016214204954149666
2.445271299999149,0.0,0.0,0.0,-5.266967275303307e-05,-0.00018701100318413132,0.00045269532371267323
2.4961201999976765,0.0,0.0,0.0,6.031011548029382e-06,-0.00028108791426030517,0.000313063441974238
2.5485964999970747,0.0,0.0,0.0,-5.361583152956917e-05,0.00023344863161310368,0.0002834497939331924
2.5999058000015793,0.0,0.0,0.0,4.181838790148402e-05,-0.0002613334402492813,0.00023749630745838662
2.647294900001725,0.0,0.0,0.0,4.550795313910691e-05,0.0004215816042927576,0.00029919201285695415
2.7027072999990196,0.0,0.0,0.0,-4.75776124483259e-05,-0.0006130903076340771,0.00027259031300480894
2.751003400000627,0.0,0.0,0.0,-8.014670851364908e-05,0.0003823932280120288,0.00013988643891835602
2.7969054999994114,0.0,0.0,0.0,0.00010264637448850792,0.00011565428947249968,4.4648489334543016e-05
2.847725300001912,0.0,0.0,0.0,3.4272013162728225e-05,0.00017969995696886045,2.5302778257584594e-05
2.90408419999585,0.0,0.0,0.0,-2.5463217998111828e-05,0.00018007887952648457,0.0005601036756670789
2.9474390999967,0.0,0.0,0.0,-6.114120530382538e-05,0.00013314072067691692,0.00027697554128850214
3.000454599998193,0.0,0.0,0.0,8.739616921350972e-05,-3.813597653109993e-05,0.00017375120278997542
3.0505791999967187,0.0,0.0,0.0,-5.033675224584672e-05,-0.0007138801313605013,9.76394251328077e-05
3.096918299997924,0.0,0.0,0.0,-5.2236660555843e-06,-0.0001730793638733558,5.8512313463712816e-05
3.1470685999956913,0.0,0.0,0.0,5.2805400975131374e-05,-0.00028602284692902364,0.00016114078362294902
3.1971976999993785,0.0,0.0,0.0,-0.0001476404618915842,-0.00021091348227902294,0.00024895746397022764
3.245659899999737,0.0,0.0,0.0,-1.742121007185156e-05,-0.00027353016102537274,0.00016591529354019637
3.2941368999963743,0.0,0.0,0.0,6.416155268907658e-05,0.00036626989754330147,0.00017981017789731068
3.3422592999995686,0.0,0.0,0.0,8.555356102172743e-05,-0.00028325030550706157,0.00012904499649727243
3.392331600000034,0.0,0.0,0.0,-5.802690417232432e-05,-0.00015584495762512414,0.00011857329240571998
3.445145500001672,0.0,0.0,0.0,2.7162027999809523e-06,0.0014658513761241587,0.0003216225472110329
3.493195499999274,0.0,0.0,0.0,-4.576631226213882e-05,-7.167010113022028e-05,0.00031126936904044727
3.544941899999685,0.0,0.0,0.0,6.198309504874864e-05,-0.0006055108922650714,0.0002298487810521475
3.593186500002048,0.0,0.0,0.0,9.66809281827163e-06,-0.00032705309651524236,0.00041665316260557946
3.6434602000008454,0.0,0.0,0.0,2.4910486275863643e-06,-0.0003861947290448888,0.0003416431771741681
3.6945309000002453,0.0,0.0,0.0,4.66268537001042e-05,0.00035170212167607597,0.0003542902948471953
3.743850699996983,0.0,0.0,0.0,-8.620333705652969e-05,0.0009662860481802256,0.0003387190043573364
3.7929641000009724,0.0,0.0,0.0,-5.443108330430782e-05,-0.0013257259032965988,0.00026403895886346977
3.843566899995494,0.0,0.0,0.0,3.821752166318989e-05,0.00012977277603984507,0.00010178377578180064
3.901545399996394,0.0,0.0,0.0,3.872110874149954e-05,0.000203896624268425,-1.82020863853401e-05
3.94828779999807,0.0,0.0,0.0,4.270670365315625e-05,-0.00025711606624049366,-5.6890609734356544e-05
3.9963601999988896,0.0,0.0,0.0,-6.388306846641426e-05,-0.00011222211930718106,-6.937761409814e-05
4.0452049000014085,0.0,0.0,0.0,-2.9877030408478048e-05,2.9045428644930383e-05,7.725634424064651e-05
4.0995410999967135,0.0,0.0,0.0,7.803460917832994e-05,0.0008955616063436892,0.00024419934457462573
4.144777499997872,0.0,0.0,0.0,-1.1040507127080902e-05,-0.00035426750979425457,0.00041769683276137327
4.197209099998872,0.0,0.0,0.0,8.298765182546779e-07,-0.00057367544397965,-0.00013358793048194253
4.2530609000023105,0.0,0.0,0.0,-3.6204538488700524e-05,-0.00022597707697579386,-9.96550521543182e-05
4.301902899998822,0.0,0.0,0.0,-4.7579673477292055e-05,0.00010296950078378655,8.64604980133069e-05
4.3534617999976035,0.0,0.0,0.0,3.8368643447941036e-05,0.00024970171900731686,0.00017207138851333786
4.403518499995698,0.0,0.0,0.0,0.00010023313312078536,-0.0004853309695206444,0.00025524601628123107
4.452790299998014,0.0,0.0,0.0,-5.337635192268443e-05,-9.791846059524653e-05,0.0003318602888909396
4.504233400002704,0.0,0.0,0.0,3.333436297205606e-05,0.0004308009815441927,3.947812322909086e-05
4.544282800001383,0.0,0.0,0.0,-6.5388487515723015e-06,0.00010759168274791569,0.00023055584359786376
4.592373899999075,0.0,0.0,0.0,-7.046906508899401e-05,-0.00015477582771897301,2.080705602961347e-05
4.642246999996132,0.0,0.0,0.0,1.6174717098599805e-05,-6.549562181040229e-05,7.846600124022541e-05
4.693334899995534,0.0,0.0,0.0,8.670577880744349e-06,-0.0003233126012915916,0.00015960348521966607
4.744081600001664,0.0,0.0,0.0,-6.721008200969685e-05,0.00027468787235147455,0.00012842451804884197
4.792045700000017,0.0,0.0,0.0,6.287906844652904e-05,-8.299065823388979e-05,-3.5628642092527895e-05
4.843620400002692,0.0,0.0,0.0,-3.956109844198766e-05,-6.252948997784158e-05,0.00011542737186673217
4.892031499999575,0.0,0.0,0.0,-2.4226479991356147e-06,-5.799707317356418e-05,-0.00022646696278299207
4.944293299995479,0.0,0.0,0.0,4.208920560721583e-06,0.00030244415116125514,-0.000477219707717027
4.996003000000201,0.0,0.0,0.0,7.623196212892819e-05,-0.0008657292008943519,-0.00021729825218689213
5.049359799995727,0.0,0.0,0.0,4.164395437375203e-05,0.0005940596981414283,-0.000331638021598819
5.096311799999967,0.0,0.0,0.0,-0.00011368432789195159,0.00012433639377621038,-0.0001930615265647151
5.149345400001039,0.0,0.0,0.0,-1.9408465073512688e-05,7.1638924473897e-05,-0.00011643548212143185
5.1953123999992386,0.0,0.0,0.0,8.096174216003589e-05,0.0003973726211133219,0.00016675534002748657
5.246245000002091,0.0,0.0,0.0,-9.327677747280489e-06,-0.0006725082371207042,0.00033891894852815225
5.295187099996838,0.0,0.0,0.0,-6.959192939771132e-05,0.0007057478815643562,0.0002294839655814847
5.342937499997788,0.0,0.0,0.0,2.9535610923562817e-05,-0.0007594928644708373,0.0003634860304175045
5.398196499998448,0.0,0.0,0.0,-1.1257248224966637e-05,0.0005677590717175134,0.0003514181390564831
5.445549899995967,0.0,0.0,0.0,4.913620784665186e-05,3.985701371179966e-05,0.0003485976450054494
5.493673400000262,0.0,0.0,0.0,-5.398148812439153e-05,-0.000565120352218093,0.00034638836150760477
5.543691300001228,0.0,0.0,0.0,-2.0538259206617527e-06,9.082944439817349e-05,0.0003042114274243422
5.594711400000961,0.0,0.0,0.0,-2.4041384036474722e-05,-0.00012249685736571067,0.00018349578840653433
5.646194499997364,0.0,0.0,0.0,7.355875998370958e-06,2.9877417662505975e-05,0.0002279893280870902
5.693792599995504,0.0,0.0,0.0,3.993167707737164e-05,-0.00022660057788194426,0.00025234864963261946
5.741955400000734,0.0,0.0,0.0,-5.562466393681538e-05,0.0001210750964810228,0.00019009329203132586
5.7953684000021894,0.0,0.0,0.0,7.475785328634398e-05,0.00029683615647657543,0.00028821545503100753
5.8479662999961874,0.0,0.0,0.0,-4.453230705965138e-05,-0.0005786122428703159,0.00030021472989886523
5.897961499998928,0.0,0.0,0.0,2.5979023469514943e-05,1.4444686977417883e-05,0.000234744228319155
5.947586099995533,0.0,0.0,0.0,3.0099023738226097e-05,0.0005696478619053354,0.00030671710310094567
5.997603399999207,0.0,0.0,0.0,-9.043844103498077e-05,-0.00044520049131802476,0.0001053794118940257
6.058370500002638,0.0,0.0,0.0,-9.094090501848636e-06,-0.01932125113536197,-0.014066364352420395
6.096920099997078,0.0,0.0,0.0,-0.0002225115761897538,-0.0005944206384751674,-0.018541123924997575
6.149080199997115,0.0,0.0,0.0,1.8637436601771783e-05,0.011374693359441251,-0.022897005879865328
6.199646599998232,0.0,0.0,0.0,-9.188210265176919e-05,-0.002378490067247139,-0.020161302924483728
6.256579699998838,0.0,0.0,0.0,9.827017789403898e-05,0.0012263515987119336,-0.00478674257753931
6.301532600002247,0.0,0.0,0.0,0.0001542001902519346,0.01062328397485042,0.03257168354936023
6.3528441000016755,0.0,0.0,0.0,0.00029558019545901403,-0.0003731140713306283,0.10275841833374394
6.402706900000339,0.0,0.0,0.0,0.0005508796181192078,0.011694303501209629,0.22064787190419805
6.448202200001106,0.0,0.0,0.0,0.0004463746093388063,0.006834102344348702,0.26404577895549347
6.503323400000227,0.0,0.0,0.0,0.0005777304837285193,-0.004049164214439769,0.26960717322633726
6.554279999996652,0.0,0.0,0.0,0.0006662683414972543,0.0017002613489420148,0.2687764801157641
6.60102470000129,0.0,0.0,0.0,0.0005637089439220784,0.01740291682485677,0.2669344635973471
6.649305300001288,0.0,0.0,0.0,0.0002654298690904655,0.004836309001230006,0.2649203714037713
6.705192699999316,0.0,0.0,0.0,0.0002562224235851954,0.0009272065202495674,0.26418654662139973
6.74661819999892,0.0,0.0,0.0,0.00020421850313164387,0.0003527470210143498,0.278510645364785
6.803165299999819,0.0,0.0,0.0,0.00013128900079588987,-0.007547559815622708,0.2296000171964801
6.846240599996236,0.0,0.0,0.0,3.1729585955752764e-05,-0.003724747176695449,0.10602227678264466
6.903338999996777,0.0,0.0,0.0,8.099357440618631e-05,0.00027433842273204783,-0.015813088758924006
6.945546800001466,0.0,0.0,0.0,-0.0004614389656500973,0.00024084772721227912,-0.17275660310593907
7.002590500000224,0.0,0.0,0.0,-0.000634233552132706,-0.0008193489325777413,-0.3548084308259103
7.0514328999997815,0.0,0.0,0.0,-0.00011018476231937005,0.001470025244958838,-0.5387695062235812
7.111481499996444,0.0,0.0,0.0,-0.0008380138060273539,-0.005971365533691857,-0.6949303740909863
7.15677439999854,0.0,0.0,0.0,-0.001457061424287901,-0.0037885124598210093,-0.6741016552989858
7.201501099996676,0.0,0.0,0.0,-0.0014673470689254879,-0.00392283777005083,-0.6352072676762459
7.253216799996153,0.0,0.0,0.0,-0.0012019703156859883,0.005859806704875627,-0.5443090343362939
7.307413000002271,0.0,0.0,0.0,-0.0013816009895110078,-0.006554507054484107,-0.43770666754447085
7.352562399995804,0.0,0.0,0.0,-0.0006151269960990902,-0.0007615381746482389,-0.37960650106570676
7.403835999997682,0.0,0.0,0.0,-0.001598497078584369,0.00026773398677117305,-0.45987581835001284
7.446235399998841,0.0,0.0,0.0,-0.0007177706265439782,0.0040141829365777275,-0.6603081919910252
7.50180040000123,0.0,0.0,0.0,-0.0015280689832225893,0.0057540765053166925,-0.8935246422679112
7.553905200002191,0.0,0.0,0.0,-0.002237258167358031,-0.0022317999127919124,-1.1324621137549242
7.604807899995649,0.0,0.0,0.0,-0.0028503104984328293,-0.00018752054985019767,-1.3425429853118642
7.652443999999377,0.0,0.0,0.0,-0.002621747588039963,0.0036703492176362656,-1.4021570979026663
7.697976600000402,0.0,0.0,0.0,-0.0019209114075808102,0.00274593068302784,-1.2750345499606819
7.748474300002272,0.0,0.0,0.0,-0.0019398154146761683,0.0008249044615545507,-1.0985916873985009
7.801426099998935,0.0,0.0,0.0,-0.0012526488974406494,0.0024654160880524566,-0.8995645596728261
7.846884799997497,0.0,0.0,0.0,-0.0013024083307342392,-0.007884189627787842,-0.68087374540863
7.898592999998073,0.0,0.0,0.0,-0.0008218069205490952,0.0018199807830937594,-0.4660724350856465
7.949905800000124,0.0,0.0,0.0,-0.00026483809444840785,0.0002851676059853177,-0.2487460684156616
8.003352100000484,0.0,0.0,0.0,3.848861990182101e-05,-0.0002893504343059581,-0.0347444080733854
8.053774100000737,0.0,0.0,0.0,0.0006740592709911316,0.0024673265669284484,0.1868122616921734
8.099024099996313,0.0,0.0,0.0,0.0007640727604004499,-0.0016242196898174678,0.37164294695139855
8.153722600000037,0.0,0.0,0.0,0.00042519938903250865,0.0061511234493497385,0.3756644167516785
8.202790999996068,0.0,0.0,0.0,0.000588392172790156,-0.003664304988417305,0.3552132318228521
8.246199200002593,0.0,0.0,0.0,0.0003884824986117175,-0.0015422442955390866,0.33850786319286363
8.303142500000831,0.0,0.0,0.0,0.0010883955471377047,-0.000274222757183773,0.32200829592337726
8.35737369999697,0.0,0.0,0.0,0.0004435320928061407,0.00025646145895855463,0.30699216054703204
8.406108900002437,0.0,0.0,0.0,0.0003897044198785298,0.0016057898123923223,0.29472234948244685
8.454566899999918,0.0,0.0,0.0,0.00036134183798610753,0.002179348835582155,0.28215524470646935
8.499018800001068,0.0,0.0,0.0,0.0005185142413059306,-0.0025494620390454025,0.27006247189633664
8.553369599998405,0.0,0.0,0.0,0.00044399235472461664,-0.00048468774045118087,0.2589802518685309
8.599421599996276,0.0,0.0,0.0,0.00025821914386439226,0.00403888430986532,0.24920240416383943
8.653421600000001,0.0,0.0,0.0,0.0004012974646994493,-0.0014889636616608403,0.24093097712229558
8.703846399999748,0.0,0.0,0.0,0.0002627193825030925,0.002495903394208984,0.23386796038157076
8.753199999999197,0.0,0.0,0.0,0.00035989303606544763,-0.00130377504865074,0.22719682420518802
8.803662799997255,0.0,0.0,0.0,0.00047900518960070743,-0.005302481164570342,0.22199716710815498
8.852185600000666,0.0,0.0,0.0,0.000254106023317079,0.005447555915870388,0.2178129888260141
8.897963900002651,0.0,0.0,0.0,0.000279784969652711,0.0024339602371007928,0.21468424151057627
8.951752900000429,0.0,0.0,0.0,0.0004243028461997715,-0.007708326304107905,0.2130687348762853
9.00630000000092,0.0,0.0,0.0,0.0003031507800801368,0.005129386249866218,0.21221099004793165
9.054042999996454,0.0,0.0,0.0,0.0003646861592994745,0.0004351123986800217,0.21361250827883257
9.097655500001565,0.0,0.0,0.0,-0.0007495068254058733,-0.00018620403853544814,0.2190483562374509
9.143318000002182,0.0,0.0,0.0,0.0005530330811441674,-0.0013156272704984491,0.22612381870539047
9.19393239999772,0.0,0.0,0.0,0.0005332822621117879,-0.0009398501067847442,0.2352068549869371
9.246378899995761,0.0,0.0,0.0,0.000752055494322753,0.0022380238898802463,0.24675265938889723
9.293035800001235,0.0,0.0,0.0,0.0006743295653649289,-0.0027328934229612564,0.26124372135060053
9.3443941000005,0.0,0.0,0.0,0.0003380738244732179,0.002585887620152498,0.2911317815382852
9.393234900002426,0.0,0.0,0.0,0.00048715923990088727,0.001953234554403749,0.3364765358319264
9.44538879999891,0.0,0.0,0.0,0.0007156514267396556,-0.0032193484807409257,0.4082209516875143
9.49551159999828,0.0,0.0,0.0,0.00043729207351347627,0.008762091722808738,0.42866906180220316
9.544495000001916,0.0,0.0,0.0,0.00035971534099059593,0.0013352986730117916,0.42535651838344674
9.592955499996606,0.0,0.0,0.0,0.0003243079400894027,2.2060863722200406e-05,0.41228673389810455
9.643818099997588,0.0,0.0,0.0,0.0003198825964464034,0.0001506447440914505,0.39242966728073647
9.694748800000525,0.0,0.0,0.0,0.0004592694111648459,0.00022597824945102055,0.3673064332349666
9.744201299996348,0.0,0.0,0.0,0.0007599104815356021,-0.0005936128828840506,0.3375101844858509
9.795962299998791,0.0,0.0,0.0,0.0001086818852370271,-0.0009626129888374266,0.30072869430050103
9.8451694999967,0.0,0.0,0.0,-0.00010610897521765127,-0.000708227636411586,0.256765492286787
9.896469799998158,0.0,0.0,0.0,0.0004731742093503972,-0.005458161108061744,0.20628835160939812
9.946504400002596,0.0,0.0,0.0,4.596702631248289e-05,-0.005340542477705067,0.06333292504610276
9.994500000000698,0.0,0.0,0.0,-0.0001481692363434976,-0.004592368223578185,0.0070796263619533825
10.044245999997656,0.0,0.0,0.0,-0.00028804482584406175,-0.0006751934108193472,0.0039125390172971295
10.096627799997805,0.0,0.0,0.0,4.299857366752118e-05,-4.993612252138638e-05,0.0019628220269575225
10.144286299997475,0.0,0.0,0.0,-7.158386060818007e-05,5.878762208808273e-07,0.0007916108232530329
10.19536109999899,0.0,0.0,0.0,-2.5901574538921857e-06,0.00027017024585180606,0.0004904072411051869
10.2456086999955,0.0,0.0,0.0,-2.8322632839808515e-05,-0.00020317041654122146,0.0007436375749398339
10.29567120000138,0.0,0.0,0.0,5.3020277431656286e-05,2.1045443270438793e-05,0.0005267551904182152
10.345548699995561,0.0,0.0,0.0,-8.320507237720615e-06,-9.868424486694434e-05,-0.0003040377947895115
10.394944400002714,0.0,0.0,0.0,2.260989709567736e-05,0.0001634996758310089,-0.0003215659832276963
10.445770400001493,0.0,0.0,0.0,-2.0176850152040256e-05,0.00018150809070266276,-0.00028220922588371143
10.494929499996942,0.0,0.0,0.0,6.395948506637288e-06,-0.000297278898190194,-0.00022713478222691043
10.54541629999585,0.0,0.0,0.0,7.954109728543303e-06,-0.00018200904914937404,-0.00014287117271569318
10.595427899999777,0.0,0.0,0.0,-1.4635314703094438e-05,0.00016276901591117974,0.0003482636211896069
10.64580659999774,0.0,0.0,0.0,2.138329007137398e-05,1.9975070778493107e-05,-2.3420037162550002e-06
10.69493820000207,0.0,0.0,0.0,-2.8473804279978517e-05,5.540158582860532e-05,-0.00046288553636213213
10.745547599995916,0.0,0.0,0.0,2.814997610188647e-05,-8.002935336912357e-05,-0.0004601787456938431
10.79479700000229,0.0,0.0,0.0,4.257572836792542e-06,0.00038374811311988054,-0.0005132153282194018
10.844639399998414,0.0,0.0,0.0,-2.308473435815901e-06,-0.00045947676517035373,0.00018722104220192932
10.895570599997882,0.0,0.0,0.0,6.074020793138548e-05,0.0006255429690099635,0.00011434701224213726
10.944843299999775,0.0,0.0,0.0,-9.123172320045203e-05,-0.0005562783701944543,0.00018308013839592475
10.993845799996052,0.0,0.0,0.0,1.463659542882177e-05,4.434554439972786e-06,-0.0001555941902275234
11.043626799997583,0.0,0.0,0.0,-1.8758613343594913e-05,-4.072980361413276e-05,-0.0004793964853017264
11.095484600002237,0.0,0.0,0.0,1.489409993670408e-05,-5.8886991705402414e-05,-0.00044250053891964976
11.14735859999928,0.0,0.0,0.0,9.567636642205088e-06,1.1477131458954865e-05,-0.00042695843306943216
11.194712199998321,0.0,0.0,0.0,2.44743688985223e-05,0.00023239769898797066,-0.0003974470456565172
11.246599899997818,0.0,0.0,0.0,-4.8390144694338524e-06,-0.000497974287260264,-0.00039603461935823676
11.295029100001557,0.0,0.0,0.0,6.201062294330084e-05,0.00029090534619849445,-0.00041610206186891966
11.344943500000227,0.0,0.0,0.0,-9.568813813011655e-05,-0.00022032266085515669,-0.00042797756625490284
11.395428600000741,0.0,0.0,0.0,5.5607737239845396e-05,0.00029480468066135255,-0.0001271116585625148
11.444730499999423,0.0,0.0,0.0,-2.510965094459354e-05,0.00019463228112348048,-0.00037865436742952406
11.510693899996113,0.0,0.0,0.0,-3.750406267527993e-05,-0.0004552619504967834,-0.00041819616379101994
11.552955699997256,0.0,0.0,0.0,2.897350487809866e-06,8.394495117228091e-05,-0.0004195064639233304
11.599967399997695,0.0,0.0,0.0,2.4177439277937195e-05,7.010390685491464e-05,-0.00031416496895190745
11.650550899998052,0.0,0.0,0.0,-3.657830351466218e-05,-0.0003643500040252762,-0.00041185479752190704
11.699507999997877,0.0,0.0,0.0,5.582023771196154e-05,0.0005367163928052839,-0.00035873595081506053
11.754286299998057,0.0,0.0,0.0,1.4608416409391628e-05,-9.544995871916439e-05,-0.00020974045835200957
11.802542799996445,0.0,0.0,0.0,-5.079786753222972e-06,0.00019362763055755385,-9.636617666578392e-05
11.847954899996694,0.0,0.0,0.0,-1.7190980129355423e-05,0.00014394438973523366,0.0002457351592874127
11.895837199997914,0.0,0.0,0.0,-1.4816128379753089e-05,0.00021559712265137006,0.0002665869638924574
11.9517726999984,0.0,0.0,0.0,-5.997428566685553e-06,-8.019464686654904e-05,0.000282018592208337
12.000234699997236,0.0,0.0,0.0,-1.549355408902837e-05,-0.00032470299667899705,0.00038754380498440516
12.053591700001562,0.0,0.0,0.0,-5.738379554148414e-06,-8.161942351079239e-05,4.48717009943434e-05
12.099476199997298,0.0,0.0,0.0,4.821708154109717e-06,-0.00029665134190913007,0.0002233694771838716
12.147476300000562,0.0,0.0,0.0,1.5919693606658987e-05,0.0003236175104212995,0.00027363000596623615
12.198882099997718,0.0,0.0,0.0,4.4980873755207326e-05,0.0002845461411041885,0.00022834585239285427
12.250025699999242,0.0,0.0,0.0,1.1130998184027051e-05,-0.00012799356334219903,0.0002497084980988011
12.298993299998983,0.0,0.0,0.0,-6.592457634948988e-05,-0.0003905132500335596,0.00021305760576844062
12.347927299997536,0.0,0.0,0.0,-2.2456998501288674e-05,0.000199088389359417,0.00015800983455822979
12.399546499997086,0.0,0.0,0.0,8.153939203378924e-05,0.00012246494595369143,0.00016038912790799755
12.455033999998705,0.0,0.0,0.0,-1.4174249214516614e-05,-4.882286277047766e-05,-1.6296087440738245e-05
12.50308799999766,0.0,0.0,0.0,-2.2282865575652753e-05,0.0002633435614792115,-6.112177014187672e-05
12.548635599996487,0.0,0.0,0.0,-5.6013261550033815e-05,-0.00032572375894813566,-0.00020527107588194258
12.60391559999698,0.0,0.0,0.0,2.8927589253091958e-05,-4.0570442775901636e-05,-0.0005932338116227415
12.659813899997971,0.0,0.0,0.0,-2.4562116051136958e-05,0.00017681696758861808,0.00012023977096103569
12.700774500000989,0.0,0.0,0.0,2.5080859851505356e-05,5.716496634369124e-05,-0.0002754591442743591
12.754460500000278,0.0,0.0,0.0,9.984544675890934e-05,0.0002436852302300444,-0.0004730093995075054
12.798322099995858,0.0,0.0,0.0,-5.958635357569408e-05,-0.00033914591595551267,-0.0004200472147366803
12.849009899997327,0.0,0.0,0.0,6.359852044344501e-05,-9.815207734230044e-05,-0.00035939956757637137
12.905254199999035,0.0,0.0,0.0,-6.805295283552742e-05,2.0153212488665828e-05,-0.00042403862324681295
12.947114499998861,0.0,0.0,0.0,-1.8666870459079186e-05,0.00012617269122739148,0.00018591465787375414
12.997798199998215,0.0,0.0,0.0,-4.4759038729841145e-06,-8.771702306834724e-05,0.00028970939735849705
13.046520999996574,0.0,0.0,0.0,7.000099279024832e-05,9.003759173066808e-05,0.0002768169422565698
13.100096800000756,0.0,0.0,0.0,-6.84483896562071e-05,-0.00022289305782046046,-7.60601345855383e-05
13.148113499999454,0.0,0.0,0.0,5.045131174757075e-06,0.00025822034132071456,-6.875540642157104e-05
13.201689699999406,0.0,0.0,0.0,-2.2710781808398562e-05,-3.826191897897666e-05,3.89468330797274e-05
13.25575299999764,0.0,0.0,0.0,4.0075090980032114e-05,-0.00012626687702219783,6.29096996500772e-05
13.301349499997741,0.0,0.0,0.0,5.919817057900021e-05,0.0004521262909125632,4.379863667300352e-05
13.354357500000333,0.0,0.0,0.0,-4.680508701637566e-05,-0.00028466931331287703,0.00014766667510795808
13.399172099998395,0.0,0.0,0.0,3.2672920045758656e-05,0.0003197333625155037,0.00021027186607931375
13.451989599998342,0.0,0.0,0.0,-5.7314192384456754e-05,-0.0004777023604470308,0.00028526557354229096
13.505116699998325,0.0,0.0,0.0,2.9189790647892664e-05,0.00024364864725753447,0.00022670699344107847
13.551472099999955,0.0,0.0,0.0,-2.7580477582167136e-05,-0.0002126497631903468,0.00019370212004256483
13.601815100002568,0.0,0.0,0.0,2.6665212080942753e-05,0.00036529802279057293,0.0002554812678967177
13.647257700002228,0.0,0.0,0.0,8.149792378443204e-05,-6.119490410297013e-05,0.000237586221592778
13.70791520000057,0.0,0.0,0.0,-4.9731814876981554e-05,3.4820880371804905e-05,0.000315495947350804
13.75204909999593,0.0,0.0,0.0,-2.6696446442712446e-05,-0.00027781740243274736,0.0002518838472744467
13.804652999999234,0.0,0.0,0.0,2.199329642254251e-06,-0.00017636253210913584,0.0002209347390469051
13.846939999995811,0.0,0.0,0.0,2.5079724336859876e-05,0.0003330922068511057,0.00023499560568213836
13.902777900002548,0.0,0.0,0.0,-1.6605274534537852e-05,0.000266447431741741,0.00023744335168776845
13.953325099995709,0.0,0.0,0.0,-1.4270959162209478e-05,-0.0004548798280207175,0.0004101692182243901
14.00546100000065,0.0,0.0,0.0,-2.0218497979284445e-05,3.8092404187835735e-05,9.601931513278599e-05
14.048303999996278,0.0,0.0,0.0,-2.1885855954980148e-05,-0.00029115483515427203,0.00014577579835809828
14.09648659999948,0.0,0.0,0.0,4.2228660820503376e-05,0.00039421265783890863,0.00022418403864055023
14.151608599997417,0.0,0.0,0.0,-3.866885391201475e-05,-9.633426904090562e-05,0.00024355047025667202
14.198796700002276,0.0,0.0,0.0,5.130967895365441e-05,-5.566651241245187e-05,0.00027698395655868064
14.246589499998663,0.0,0.0,0.0,1.1539661634585172e-05,0.0001867385834864655,0.0002992023721629878
14.305425400001695,0.0,0.0,0.0,3.2826052796406355e-06,-0.0001427935585900218,-7.963127211379166e-05
14.347895899998548,0.0,0.0,0.0,8.470054303914085e-05,-0.00013822455472240635,-0.00010911032960990929
14.397377100001904,0.0,0.0,0.0,-0.00011779194841635981,-5.462903627518162e-05,-0.00013943702931726247
14.448236099997303,0.0,0.0,0.0,-1.626914456404892e-05,-0.00016992705161228527,0.00011905430491960671
14.501825499995903,0.0,0.0,0.0,5.666376515026839e-05,0.0005746805209217026,3.364560334458314e-05
14.55515849999938,0.0,0.0,0.0,2.678107138781778e-05,4.452092891530125e-06,0.00015646865375799608
14.602392599997984,0.0,0.0,0.0,-4.651678219251241e-05,-9.59078407858343e-05,0.00013956507996593329
14.653774300000805,0.0,0.0,0.0,-4.6764040023761305e-05,-0.00035709957314640956,-0.0008034487373492925
14.7024156999978,0.0,0.0,0.0,1.627834534346679e-05,0.00015081818587322807,-0.00047327617537408885
14.752575599995907,0.0,0.0,0.0,7.627269478259935e-05,-0.0001703170933040892,-0.0003844448344591368
14.797058600001037,0.0,0.0,0.0,-8.484527221319711e-05,7.169940067096833e-06,-0.000372099843095387
14.845651899995573,0.0,0.0,0.0,5.65314815754917e-05,0.00029844196175058215,-0.0002657304587026227
14.895823699996981,0.0,0.0,0.0,-4.665319583649947e-05,-0.00010104236993813241,-0.00044194612938075305
14.945340799997211,0.0,0.0,0.0,9.894457951249033e-05,-6.962302972992322e-05,-0.00032295857239002755
14.99710100000084,0.0,0.0,0.0,-0.00010546135288429702,-0.0003850670064478557,-0.0004156400778204498
15.045058700001391,0.0,0.0,0.0,4.822638176861626e-05,0.00015416973909388587,-0.0003845183233962885
15.1049903000021,0.0,0.0,0.0,4.578343503373632e-05,0.0006203437101621283,-0.0003815727170278216
15.155076000002737,0.0,0.0,0.0,-8.572198833058819e-05,-0.0007248023567635873,-0.0003587305811589882
15.205081699998118,0.0,0.0,0.0,-4.58733174522126e-09,-7.829338449854848e-06,-0.0003307553790247465
15.255416899999545,0.0,0.0,0.0,3.918394728980502e-05,-3.558892532607368e-05,-0.00025842088420655583
15.29820920000202,0.0,0.0,0.0,-2.7757467160094278e-05,-9.814370528943091e-05,-0.0002730575016173959
15.35458700000163,0.0,0.0,0.0,-1.8031546761367085e-05,0.00014843310786773282,-0.00028686491733639414
15.404264199998579,0.0,0.0,0.0,1.2260058004305797e-05,0.0005816217587243174,-0.0003017534542377424
15.455993299998227,0.0,0.0,0.0,-4.5547959033359206e-05,-5.8412160640172675e-05,0.00011589833038533994
15.499301500000001,0.0,0.0,0.0,4.087732832374652e-05,-0.00017462806279322786,9.753476016740647e-05
15.547461699999985,0.0,0.0,0.0,-2.3874452748732553e-05,-0.0002799615603454951,0.0001538641089514284
15.603297100002237,0.0,0.0,0.0,1.540612246229687e-05,-5.5875377636376755e-05,0.00016807255293963696
15.651497899998503,0.0,0.0,0.0,-1.3051186274540542e-05,0.0002126322127601772,0.00020000975569676362
15.698409899996477,0.0,0.0,0.0,2.528320030945214e-05,0.00019109374370378089,0.0003090652202717418
15.747594499996922,0.0,0.0,0.0,-2.266405993101266e-05,-0.00010623963422881822,0.00021676575424558212
15.803593399999954,0.0,0.0,0.0,5.000407588692492e-07,-3.9980970448832154e-05,0.0002847477714083465
15.850202000001445,0.0,0.0,0.0,-5.032862697079003e-05,-0.00016037634177143905,-0.0001287199792962082
15.898525500000687,0.0,0.0,0.0,1.8454315381571458e-05,0.00012648358738590341,-0.00016850622470735414
15.951763999997638,0.0,0.0,0.0,5.400668362033463e-05,-8.385655455148202e-05,-0.0003869461645579765
16.000384400002076,0.0,0.0,0.0,6.704652244459518e-05,0.0002855853750237749,-0.0004828783186540165
16.053155399997195,0.0,0.0,0.0,-6.3783922690922e-05,-0.0002281085242149478,-0.00037717450815160205
16.10701529999642,0.0,0.0,0.0,-7.808912975556006e-05,-0.00015717118603008267,-0.00019841658333840008
16.15279659999942,0.0,0.0,0.0,1.9662025667155015e-05,0.00013062343564510914,-0.0001102025197112071
16.200348500002292,0.0,0.0,0.0,3.139321969736387e-05,0.00016602794955497286,-0.0003311151690950657
16.249262600002112,0.0,0.0,0.0,2.1440183162059285e-05,7.34311987896236e-05,-0.0003995084441295712
16.302283799996076,0.0,0.0,0.0,1.5779934159538416e-05,-0.00015796678581434526,-0.0003342767602309482
16.34798430000228,0.0,0.0,0.0,-3.6821134667287825e-05,-0.00020996836067537422,-1.2700085255246573e-05
16.40418559999671,0.0,0.0,0.0,8.78221553981054e-05,0.0005890981890569281,-0.0003970701146385956
16.456727899996622,0.0,0.0,0.0,-8.331080899096542e-05,-4.336285237650238e-05,-0.0002489289145255846
16.499333499996283,0.0,0.0,0.0,-1.5905773430589591e-06,-4.432486306851133e-06,-0.0002503783290694914
16.556182100001024,0.0,0.0,0.0,-4.47650958913385e-05,-1.2721619786786129e-05,-0.0002814625380398855
16.60361379999813,0.0,0.0,0.0,3.905375180978582e-05,-0.0001643234581394457,-0.00021408703220046372
16.65421449999849,0.0,0.0,0.0,-1.1333004037681308e-05,-0.00017772685968355247,5.5246261359625185e-05
16.707254200002353,0.0,0.0,0.0,2.6297112422583323e-05,0.00035667179788526835,-0.0002516888226270531
16.748034299998835,0.0,0.0,0.0,-5.673646924833728e-06,-0.00016317171458973186,-0.00028665063581117086
16.802651799996966,0.0,0.0,0.0,-7.538854887897701e-06,-1.2461395764967848e-06,-0.0002328253508591877
16.852150300001085,0.0,0.0,0.0,-6.354140171906464e-05,2.9630322962351194e-05,-0.0002084433951867774
16.898532599996543,0.0,0.0,0.0,0.00011306994501020996,-0.0002062652978699632,-0.0004091140244516623
16.957181899997522,0.0,0.0,0.0,-3.273235550878281e-05,9.810759438818893e-06,-7.441587290408688e-07
17.002239399997052,0.0,0.0,0.0,0.00012952860731388734,0.0004839240359158976,-0.00017151257694763883
17.05264019999595,0.0,0.0,0.0,-6.266941033404831e-05,9.041677649401408e-05,-0.0001361916700138312
17.10596760000044,0.0,0.0,0.0,-0.0001067669340454841,-0.00043443657228807084,-0.00031433784169665815
17.15210610000213,0.0,0.0,0.0,-3.6502620106581254e-05,-0.0002613298483598225,-0.0003283465886498492
17.20252089999849,0.0,0.0,0.0,1.9974759011951548e-06,0.00031774364138726296,-0.0004306875243912711
17.24890890000097,0.0,0.0,0.0,6.273726699246026e-05,-0.0001935146156973027,6.278753357372944e-05
17.305004900001222,0.0,0.0,0.0,5.1896357747682504e-05,0.0005056130109305881,-0.00015563612853160434
17.353884500000277,0.0,0.0,0.0,-1.1601223800437542e-05,-0.0003324139310117084,-0.0002191601989802093
17.400949299997592,0.0,0.0,0.0,-8.700531089157236e-05,-0.000298719094525491,-0.00017436690677323648
17.453622499997437,0.0,0.0,0.0,-1.9067141405422537e-05,-0.0001043094614551391,0.00012876560210309064
17.502555799997936,0.0,0.0,0.0,4.501258410637547e-05,0.0001883990002559778,-0.00025967586151066224
17.552943499998946,0.0,0.0,0.0,1.3159241133081234e-05,1.191472403859145e-05,-0.0004407485253094238
17.605234000002383,0.0,0.0,0.0,1.8947486701151007e-05,-0.0002365658187400725,-0.0003270985355453245
17.654021299997112,0.0,0.0,0.0,-3.152136228813472e-05,-0.00015717441879096116,-0.0003416990305870894
17.701719500000763,0.0,0.0,0.0,0.00011077634710078625,0.00011919368544578891,-0.0002973104152691246
17.754128699998546,0.0,0.0,0.0,-7.550986368043648e-05,0.0001411888672565824,-0.000268190199221325
17.800816299997678,0.0,0.0,0.0,-2.760251702914838e-06,0.00010078899960337846,-0.00025798760091432703
17.855523500002164,0.0,0.0,0.0,2.543216126368044e-06,0.00031358973551735364,-0.0002679422962262965
17.904481400000805,0.0,0.0,0.0,-2.7302185017716558e-05,-0.0005528048699663208,-0.0003282196020164969
17.956672499996785,0.0,0.0,0.0,2.3896678688778513e-05,0.0003861329379626898,-0.00021401118291189397
18.00429450000229,0.0,0.0,0.0,5.781263876006871e-05,9.384096510337627e-05,-0.00022694653953893236
18.055766500001482,0.0,0.0,0.0,-2.42154238906561e-05,-9.371083590419886e-05,-0.00022277569643235128
18.10113899999851,0.0,0.0,0.0,-3.773550078445532e-05,-0.00014917763413014768,-0.0001609699549332741
18.152247899997747,0.0,0.0,0.0,4.41024301904444e-08,-9.703711393206283e-05,-7.77071913393833e-05
18.204494099998556,0.0,0.0,0.0,-1.5603870407712467e-06,0.0002688527244134864,-0.00022082161947549345
18.253511900002195,0.0,0.0,0.0,-3.434323675593562e-05,-0.000378503620539835,-0.00031478320210208996
18.30445250000048,0.0,0.0,0.0,0.00011911249316111365,0.0006459406968836448,-1.9253731850878253e-07
18.355525099999795,0.0,0.0,0.0,6.557731329395575e-05,7.973532286423607e-05,-0.00017102214617169912
18.407503700000234,0.0,0.0,0.0,-0.00013278368712940286,-0.0005194935052326218,-0.00011676332877974644
18.45598659999814,0.0,0.0,0.0,-7.984653403921448e-05,0.00015620695847710743,-0.0002709963307702212
18.50438530000247,0.0,0.0,0.0,-3.448749568482346e-05,-0.00011311276125635072,-5.679249113679431e-05
18.556642700001248,0.0,0.0,0.0,0.00012288755797387733,0.0002815076646263457,-5.37962113368819e-05
18.6063307000004,0.0,0.0,0.0,-0.00011602838775989508,-0.0001796763565702297,-8.388929936176278e-05
18.653494899997895,0.0,0.0,0.0,7.485126245001741e-05,9.466408814081764e-05,-4.5670187865817685e-05
18.704684399999678,0.0,0.0,0.0,-2.412689680162466e-05,-0.00018785702817809103,-0.00015807675791737865
18.753631100000348,0.0,0.0,0.0,0.00011940870391249152,4.464363201821844e-05,-0.0006940071619692398
18.8024987999961,0.0,0.0,0.0,0.00013824212531813413,0.00045723419560590977,-0.0005306154891815064
18.85693409999658,0.0,0.0,0.0,-0.0002139711456995023,-0.0009186005441356825,-0.00046220315793293724
18.90600640000048,0.0,0.0,0.0,4.802497996958727e-05,0.0003478515698143575,-0.0003113913810446793
18.954595499999414,0.0,0.0,0.0,-7.54929408154647e-05,0.00011812362246646803,-0.00029709797281534024
18.999068500001158,0.0,0.0,0.0,0.00020666414988787843,0.0002111118035295231,-0.00035790046610111156
19.04933699999674,0.0,0.0,0.0,-0.00011262492451524187,-0.00042168900454432254,-0.00033348241003082284
19.104807199997595,0.0,0.0,0.0,-4.389652246059743e-05,0.0007485788694180283,-0.0002548577053611638
19.1529709000024,0.0,0.0,0.0,3.7132322587463106e-05,-0.0005233658961060412,-0.00035154212761175535
19.201537900000403,0.0,0.0,0.0,0.0002807845914448898,0.0003185201765036952,-0.00024358530352591864
19.254752000000735,0.0,0.0,0.0,-0.0003028473610035714,-0.0005416130672260313,-0.00021288305901499488
19.306108500000846,0.0,0.0,0.0,-3.3170514080860085e-05,-0.0002512733973247844,-0.00031585117797570494
19.35229039999831,0.0,0.0,0.0,5.7438974414330475e-05,0.0006444307012784415,5.9929406196418943e-05
19.40215470000112,0.0,0.0,0.0,-1.7641491969011047e-06,-0.00019147057931711875,-0.00018010565322475083
19.45054540000274,0.0,0.0,0.0,4.288999975575749e-05,-0.00018921503112415643,-0.0005277382358542368
19.506732399997418,0.0,0.0,0.0,0.00011637530350801855,0.00039973488863875194,-0.0002900391713385398
19.554120299995702,0.0,0.0,0.0,0.00028871103715725224,0.0004401887176425325,-0.0003298160082449858
19.60244000000239,0.0,0.0,0.0,0.00010115734373706535,0.0006617719248391317,-0.00016311301765193742
19.653727199998684,0.0,0.0,0.0,-8.501367162146105e-05,-0.0006988558804217097,-0.0003275314539484422
19.70351110000047,0.0,0.0,0.0,3.0423171243500113e-05,0.00019485813646648016,-0.00038091465088900295
19.755406299998867,0.0,0.0,0.0,0.00014512008181863175,0.0001370626190642349,-0.00019700549002476614
19.80575400000089,0.0,0.0,0.0,-0.00048630012854241993,-0.000900652667918674,-0.00016539771144738642
19.854630499998166,0.0,0.0,0.0,-0.00017191608780219492,-1.8129683778990693e-05,-0.000261848886690959
19.929555099995923,0.0,0.0,0.0,0.0002379601719862543,0.0004266804246324119,-0.0004385451545178814
19.989950999995926,0.0,0.0,0.0,-0.00026812734440596577,-0.00044778471135844286,-0.00040095216411481667
20.03859519999969,0.0,0.0,0.0,0.00016195963167620224,0.0002704887474005328,-0.00027512635296030215
20.091259299995727,0.0,0.0,0.0,-0.00012951091907048492,-0.0006839654630508396,-0.00018224788699517438
20.14719889999833,0.0,0.0,0.0,-7.067646581413587e-05,7.205068841924304e-05,-0.0002107724711273563
20.190619900000456,0.0,0.0,0.0,-3.5108342948953846e-05,0.0001556620358618923,-7.024080665243535e-05
20.252780800001347,0.0,0.0,0.0,9.946302997805233e-05,4.141631202319429e-05,-0.00024396285382695236
20.29458909999812,0.0,0.0,0.0,-6.507664519817566e-05,5.290778368951615e-05,-0.00024708580740550885
20.341462199998205,0.0,0.0,0.0,-1.6134238790228955e-05,-4.511944987213146e-05,-0.00032187439244384184
20.399636900001497,0.0,0.0,0.0,-7.298854044371616e-06,0.00039847075801794523,-3.177434062160707e-05
20.437165399998776,0.0,0.0,0.0,-4.6391153958944663e-05,0.00018311117029752957,-0.0002358092780415595
20.489545999997063,0.0,0.0,0.0,5.660468102990275e-06,-0.00043626621735283244,-0.0001228344265154043
20.53341250000085,0.0,0.0,0.0,2.183855385299145e-05,-0.00020179621447687557,-0.0003809713713741106
20.588254000002053,0.0,0.0,0.0,2.802941084711629e-05,0.0003598575041093239,-0.00019877628046227407
20.633922100001655,0.0,0.0,0.0,-1.6984196227190288e-05,-0.0004232822544688016,-0.00022796990847855368
20.685699800000293,0.0,0.0,0.0,3.5879199847668755e-05,0.00030726771515271603,-6.547680383450256e-05
20.734846999999718,0.0,0.0,0.0,-5.910556851949333e-05,0.0003943497077987083,-4.061326395461352e-05
20.792241099996318,0.0,0.0,0.0,6.010425055627376e-05,-0.0001366483525348028,-0.0002634872524091368
20.834362800000235,0.0,0.0,0.0,-3.6618647933829664e-05,-0.00014224163009759257,-0.0001329331152990797
20.88149759999942,0.0,0.0,0.0,-2.7991270285173942e-05,-0.00024568198409808474,-0.00033972765240476005
20.934163400001125,0.0,0.0,0.0,1.1350840169534633e-05,0.00022214116959640297,-9.94492221352052e-05
20.983648299996275,0.0,0.0,0.0,-6.95663541151296e-06,-0.0006199391025191929,-0.0002540074718035577
21.036930199996277,0.0,0.0,0.0,-5.649466143998815e-06,0.00024259481331734192,-0.0003344014421269385
21.081812799995532,0.0,0.0,0.0,2.1720329025982372e-05,0.0003986564450278485,-0.0001827051952044561
21.13551290000032,0.0,0.0,0.0,-2.079324925395722e-05,-0.00017569273656249895,-0.0001728227180627239
21.183400599999004,0.0,0.0,0.0,2.7542007333894715e-06,0.0002038141758854989,-0.0001508690397746895
21.23773380000057,0.0,0.0,0.0,-1.182989544165715e-05,-0.00034679734904956327,-0.00015478359330445081
21.284851399999752,0.0,0.0,0.0,1.3296014655004726e-05,8.388841258696479e-05,-0.0002830810987430485
21.332805300000473,0.0,0.0,0.0,1.4800718748409176e-05,-3.960054840488652e-05,-0.00021698457350128616
21.380820999998832,0.0,0.0,0.0,-2.79928097338601e-05,5.531147985106139e-05,-0.0001267698911382307
21.43164650000108,0.0,0.0,0.0,-1.843300423730132e-05,-0.00022806503764891668,-9.992256908334337e-05
21.484228000001167,0.0,0.0,0.0,6.600600620378279e-05,0.00014664981952625615,-0.00010526299760900197
21.52852229999553,0.0,0.0,0.0,8.984333350135279e-06,0.00041921274677354754,-5.457276217590812e-05
21.584737299999688,0.0,0.0,0.0,-1.9508085490405977e-05,-0.0006177070677019402,-4.799198580621558e-06
21.63898789999803,0.0,0.0,0.0,-3.228347074146983e-05,0.0003376539340716375,-0.0003875665402360266
21.683702000002086,0.0,0.0,0.0,8.276291863936436e-06,-1.330480808021868e-05,-0.0002611437981550822
21.731507399999828,0.0,0.0,0.0,9.96189122320513e-06,-8.716600357481977e-05,-0.0004262292419743907
21.78196229999594,0.0,0.0,0.0,-6.089871848891937e-06,0.00014151828617535857,-0.00034057516296069623
21.833731899998384,0.0,0.0,0.0,4.8679512259015414e-06,9.085569272009039e-05,-0.0001683789356861797
21.885577200002444,0.0,0.0,0.0,2.938856907126838e-05,1.0935629215277774e-06,-0.00011299827235069082
21.933513399999356,0.0,0.0,0.0,-3.112119582847299e-05,-3.858966152931336e-05,-0.00020513278529467967
21.985532599996077,0.0,0.0,0.0,5.32618970885341e-06,-0.0001253026242630314,0.0003889653267325992
22.03539710000041,0.0,0.0,0.0,6.200586100391155e-05,-0.0002821497578139262,-0.0002444561499014078
22.086673300000257,0.0,0.0,0.0,-7.446775158213715e-05,-5.010315499004132e-06,-0.00023059618406191356
22.137375300000713,0.0,0.0,0.0,2.993104286949018e-05,0.00047521078772039504,-0.0003550929362593063
22.18101249999745,0.0,0.0,0.0,9.736451072526239e-06,-0.00042996525134368624,-0.0004097586045079811
22.234329899998556,0.0,0.0,0.0,2.251647718189942e-05,0.00043251645482404516,-0.000324780767542448
22.27872679999564,0.0,0.0,0.0,-9.672500794388763e-05,-0.00011876461602762625,-0.0002571032192076845
22.336784699997224,0.0,0.0,0.0,5.036343904818539e-05,-4.1033280047631737e-05,-0.00046016962182082353
22.384742099995492,0.0,0.0,0.0,1.2098174480821001e-05,-0.0003451079955156804,-0.0005029634437718212
22.43359220000275,0.0,0.0,0.0,-6.368763127783952e-06,4.359770995108722e-05,-0.00043858964247644436
22.482813000002352,0.0,0.0,0.0,1.3651573548523807e-06,0.0002686099845785432,-0.0004140282197536203
22.53734540000005,0.0,0.0,0.0,2.29250683841351e-05,-0.0002902765349141004,-0.0004760065769074124
22.581579600002442,0.0,0.0,0.0,-2.1061088636889787e-05,0.00022445811773614375,-0.00034591441449835665
22.634996200002206,0.0,0.0,0.0,-2.3540477007090526e-05,-0.00024114303192534708,-0.00039748770370765256
22.686869099998148,0.0,0.0,0.0,-7.266344007926781e-06,0.00021149295356332783,-0.00041508346000775824
22.73647859999619,0.0,0.0,0.0,1.5055383878666706e-05,5.500975812511753e-05,-0.00031761506779018166
22.781390199997986,0.0,0.0,0.0,2.203969098409868e-05,-0.00013679276709292285,-0.00034081153320124114
22.83036759999959,0.0,0.0,0.0,-5.8006260973184904e-06,-1.5008851778646828e-05,-0.00034840900575045815
22.88204229999974,0.0,0.0,0.0,-4.966760532730936e-05,-0.00023451071798282115,-0.000433068292107435
22.935736200000974,0.0,0.0,0.0,7.656256603335566e-05,0.0005644077059035037,-0.00022293330944971943
22.98300190000009,0.0,0.0,0.0,-5.415933718933369e-05,-0.0003676327812711051,-0.00036531911545472327
23.03549860000203,0.0,0.0,0.0,-1.352535020935345e-05,0.00010627978876889276,-0.0002622539326129535
23.076936899997236,0.0,0.0,0.0,5.986708512638576e-05,0.00016248150974320673,-0.0003633584646185995
23.12539200000174,0.0,0.0,0.0,-2.7510821325723188e-05,-0.00024210927935766526,-0.00018542033677555433
23.185135899999295,0.0,0.0,0.0,-3.3930809890695763e-06,0.00039425049456329577,0.00026206404324058364
23.230449199996656,0.0,0.0,0.0,-1.4363732708424046e-05,2.236410226492585e-05,0.00018846054655539084
23.2784032999989,0.0,0.0,0.0,2.2577908746480495e-05,-5.069797015234009e-05,0.00021314410120684094
23.334585600001446,0.0,0.0,0.0,-2.4966122443456532e-05,5.5160723600823175e-05,0.00026444839381384126
23.382521300001827,0.0,0.0,0.0,-1.2381969927228632e-05,0.00029357736225802696,0.0002637361670139558
23.43679610000254,0.0,0.0,0.0,1.2618864838061603e-05,-0.0003346111884493344,0.00036745097806515416
23.47780989999592,0.0,0.0,0.0,4.6334535607679106e-05,-0.0003607791961508086,-0.00023635134511706436
23.53505099999893,0.0,0.0,0.0,-3.496960448683637e-05,0.00016849236037240738,-0.00019423562327878905
23.585839499995927,0.0,0.0,0.0,3.5621000799314077e-06,0.00037723776572218606,-0.0002102007252834448
23.62599919999775,0.0,0.0,0.0,-2.55064704818328e-05,-0.0007711649078294379,-0.00012673590363225016
23.680501199996797,0.0,0.0,0.0,1.1660138274384801e-05,0.0002668466093106011,-0.00022779323105397246
23.731726300000446,0.0,0.0,0.0,1.3569344676393335e-05,0.00037909023593407187,0.0003294639428057827
23.7847363999972,0.0,0.0,0.0,1.1982045828049536e-05,-0.00017064324155459122,0.000356185183329149
23.82651690000057,0.0,0.0,0.0,-2.4705466063910523e-05,-0.00012329730899236012,0.00029659388437782894
23.8819599999988,0.0,0.0,0.0,7.431779021481542e-06,0.00020359546496182034,0.0002343813725281298
23.930238399996597,0.0,0.0,0.0,-1.1633181355134866e-05,0.0001897041365264082,0.00023210875399293424
23.985857699997723,0.0,0.0,0.0,-2.574296322709154e-05,0.0002605437943634879,-0.0005306632765554848
24.026837699995667,0.0,0.0,0.0,-1.744100436885194e-05,-0.0006727722192304083,-0.000247025407507764
24.07659959999728,0.0,0.0,0.0,5.587873808723935e-05,5.2178171232355004e-05,-0.0004897993354469953
24.125291399999696,0.0,0.0,0.0,-1.4169885404933218e-05,0.0004589303994990731,-0.00039685838988346925
24.176877400001104,0.0,0.0,0.0,1.8373388606120012e-05,-0.0005873031732392232,-0.0004111980323513618
24.23346959999617,0.0,0.0,0.0,-7.50531172947858e-06,2.342160688828516e-05,-0.00037527124143445624
24.27753059999668,0.0,0.0,0.0,1.606746827632734e-05,8.783665745698701e-05,-0.0003542889601704511
24.33316670000204,0.0,0.0,0.0,1.5061381784271603e-05,-5.730302182835379e-06,-0.0003861594128829847
24.384936800001014,0.0,0.0,0.0,3.624227966215701e-05,0.0002990638182766218,-0.00031523374461385814
24.43437450000056,0.0,0.0,0.0,-6.354586072593743e-05,-1.3514632702025362e-05,-0.00019104132985475072
24.48355789999914,0.0,0.0,0.0,1.6050752690621577e-06,-0.0002539741082970202,3.204961543536798e-05
24.532373199996073,0.0,0.0,0.0,5.042099578687675e-06,6.926590143566308e-08,0.00020332745545781263
24.577277600001253,0.0,0.0,0.0,-1.4307639523677562e-05,0.00018135724176601172,0.00017000160617418368
24.632072000000335,0.0,0.0,0.0,-4.524627701425099e-05,3.150455450967023e-05,0.0001509168955862346
24.67681040000025,0.0,0.0,0.0,2.5613339326100845e-05,-2.026497824612717e-05,-0.00039000302941077816
24.725255400000606,0.0,0.0,0.0,1.6301423721452624e-05,5.838614679492894e-05,-0.00027004064526517005
24.775700199999847,0.0,0.0,0.0,-4.071588430166528e-05,-0.00022443962379332932,-0.0003842977359853707
24.829465700000583,0.0,0.0,0.0,1.0480988322405694e-05,-0.0001852391438361051,-0.00019469600912390818
24.884756899999047,0.0,0.0,0.0,-2.881632712237451e-06,9.266054369827756e-05,-0.00020431501931008787
24.931548900000053,0.0,0.0,0.0,5.617531617406272e-05,-0.00012453158408128913,0.00010255155019575427
24.982972799996787,0.0,0.0,0.0,-2.9282992933423253e-05,0.0003915646574596577,0.0002299635927012912
25.03193669999746,0.0,0.0,0.0,2.4052660581695494e-05,-0.0003155479478032482,0.0003128167396520567
25.077113300001656,0.0,0.0,0.0,-6.036553050359226e-06,0.0005205895472291769,0.00029203947402383707
25.132477899998776,0.0,0.0,0.0,-6.107849506680019e-06,-0.0008156779883156937,0.00018954623394344645
25.18410479999875,0.0,0.0,0.0,3.167410777514472e-05,0.0005259451886417176,0.0002602170627859217
25.230970399999933,0.0,0.0,0.0,-3.8934267875264875e-05,-0.00027508375278352716,0.0003602085076539292
25.28395759999694,0.0,0.0,0.0,-4.892666286153816e-06,8.584076389294812e-05,0.00028539384436663385
25.33089949999703,0.0,0.0,0.0,5.602307506418562e-05,-0.0003444760920800858,0.0004277960281672394
25.383128100002068,0.0,0.0,0.0,-2.5572778564473144e-05,6.799823749623731e-05,0.00032955365923110895
25.43396589999611,0.0,0.0,0.0,1.2539874814211322e-05,0.00017711977130707246,0.00031638262146336355
25.482485799999267,0.0,0.0,0.0,-4.2656231586357295e-05,-0.000374404543272231,-0.00013840558295160984
25.52856459999748,0.0,0.0,0.0,-9.846424499817008e-06,0.00024357603217307008,-0.0002789781983751121
25.58152549999795,0.0,0.0,0.0,1.5391003055239386e-05,0.0003516563156993872,-0.00032609899348681905
25.624960100001772,0.0,0.0,0.0,3.6724348208016158e-06,7.060889222771123e-05,-0.00019903418907686184
25.678517300002568,0.0,0.0,0.0,0.0001011506545999364,-0.00016505814228884438,-6.63850676440083e-05
25.734687800002575,0.0,0.0,0.0,-6.939773601406426e-05,-5.313817307339519e-05,0.00015370532063235765
25.77679419999913,0.0,0.0,0.0,-2.5213119021477994e-05,-2.670812228191173e-05,8.106873388633841e-05
25.82967279999866,0.0,0.0,0.0,-1.716473963230124e-05,9.131316244229782e-05,-0.00017787725099122794
25.88389029999962,0.0,0.0,0.0,4.528291482954405e-05,-2.432874236225358e-06,-0.00014826214790500646
25.934427200001664,0.0,0.0,0.0,-2.623451283503502e-05,-0.0004385255508744833,-0.00011731186652377547
25.97919389999879,0.0,0.0,0.0,6.601907912858335e-06,0.00044206634587192666,-8.351363148074566e-05
26.026257199999236,0.0,0.0,0.0,-6.668143025068444e-06,-9.775048296798577e-05,3.22527211185589e-05
26.079109199999948,0.0,0.0,0.0,2.4270647213915263e-05,-0.0001805285583015036,7.337824802345769e-05
26.134772299999895,0.0,0.0,0.0,1.2843173774945875e-05,6.69229283391905e-05,0.00019352428627861313
26.185589799999434,0.0,0.0,0.0,-3.0323386295731786e-05,3.649264877850102e-05,0.00024227141330950195
26.232780799997272,0.0,0.0,0.0,-1.0674481046275796e-05,0.00040585018179212446,0.0002321153650870698
26.27542810000159,0.0,0.0,0.0,7.93655877364275e-08,-0.0003040223307411489,0.00031276079511398044
26.333155599997554,0.0,0.0,0.0,-6.155289366868999e-06,-0.0004543461314021247,0.00012928204500843238
26.381996999996773,0.0,0.0,0.0,3.888825916676921e-05,0.0004867687331443126,0.0003294337604824694
26.43433350000123,0.0,0.0,0.0,-2.2986031793522266e-05,-0.00033739017897165815,-0.00013755262257968872
26.47516039999755,0.0,0.0,0.0,-1.7784424887428302e-05,9.578764582440492e-05,-7.174281682965237e-05
26.53223579999758,0.0,0.0,0.0,1.6236780372882527e-05,3.918957611308241e-05,-9.640790356286813e-06
26.575540300000284,0.0,0.0,0.0,-5.998895506395315e-06,-0.0002001266761569044,-2.206375435507768e-05
26.631366199995682,0.0,0.0,0.0,-2.598440120087546e-07,0.0005729120165076768,2.643569096763667e-05
26.68324069999653,0.0,0.0,0.0,-1.1403737859964532e-05,-0.0006738738386345741,7.617866173436173e-05
26.72886660000222,0.0,0.0,0.0,3.4445997834891096e-06,0.00029713762488379694,0.0002113463149736719
26.783592200001294,0.0,0.0,0.0,7.168180475274198e-06,0.0002420782316727177,0.00018842755120950812
26.8273590999961,0.0,0.0,0.0,2.9765086658947803e-05,-0.00019817436564497284,0.0001980394937348224
26.877204199998232,0.0,0.0,0.0,1.042941629636566e-05,8.576622084588973e-05,0.00032889808613805827
26.927044899995963,0.0,0.0,0.0,-3.010326484062451e-06,-0.00023113516237119357,0.00013116453118816005
26.981682500001625,0.0,0.0,0.0,-9.521896011064795e-06,0.0001519940826982599,0.0002793576009708879
27.030960199997935,0.0,0.0,0.0,1.1833595578979807e-05,0.0001616365866164067,0.00022104835519592576
27.08291889999964,0.0,0.0,0.0,-3.7546711643832245e-05,5.426589568154746e-05,0.0002764178101993885
27.12590810000256,0.0,0.0,0.0,-8.820209004723739e-06,-0.0001611659568660241,0.00022164830680862816
27.183125600000494,0.0,0.0,0.0,-1.9694223275615934e-05,-1.721620058856058e-05,-3.5826231211115526e-05
27.22656950000237,0.0,0.0,0.0,6.572064040214687e-07,0.0002514623038240433,-0.00011989012099787843
27.27967279999575,0.0,0.0,0.0,-1.3497896855645867e-05,-0.0005872260821723077,-0.0005061145948990251
27.32651459999761,0.0,0.0,0.0,4.7485718304081e-05,8.579863241782067e-05,-5.060238860931557e-05
27.37602809999953,0.0,0.0,0.0,3.408445647284446e-05,0.0005064032866304153,0.0003203577611817207
27.432260299996415,0.0,0.0,0.0,-2.228446349359525e-05,-0.00039892325342291165,0.0003346798672550066
27.47579749999568,0.0,0.0,0.0,-3.5693293654759355e-06,5.936327888056265e-05,0.0005762212593152363
27.527797599999758,0.0,0.0,0.0,-3.48223970737642e-05,-0.00015108982904792133,-0.0002347926635609603
27.57976819999749,0.0,0.0,0.0,3.6524868845206675e-05,3.5255606517396193e-06,-0.00018814565333929057
27.625801800000772,0.0,0.0,0.0,-1.638328739794129e-05,0.0003372519226561401,-3.795949827676036e-06
27.68379090000235,0.0,0.0,0.0,1.0181595033513645e-05,-9.844630916752189e-05,4.575749973575891e-05
27.734139899999718,0.0,0.0,0.0,-1.4883333298370917e-05,6.595789940533635e-05,7.33630824405477e-05
27.781107199996768,0.0,0.0,0.0,1.7600522852012348e-05,0.0002143785066403109,8.518553425498097e-05
27.829582400001527,0.0,0.0,0.0,-1.2477607955139918e-05,-0.0004542843714829248,6.063618667720857e-05
27.88434089999646,0.0,0.0,0.0,9.560216642487607e-06,0.0003220622813372855,2.666959871931262e-05
27.93161659999896,0.0,0.0,0.0,3.9942863060974485e-05,-0.0005559746830554055,-0.0001633416418959436
27.983843800000614,0.0,0.0,0.0,2.296854046426219e-06,0.00021491565152067144,-0.00028732770636810787
28.026014900002338,0.0,0.0,0.0,-1.9150338126320066e-05,0.0004967443755538493,-0.0002836871393790931
28.076614699995844,0.0,0.0,0.0,-1.2426706930554296e-05,-0.0004978829708722353,-0.0003065000367541286
28.12484879999829,0.0,0.0,0.0,2.8637596552298554e-05,9.257734523055383e-05,-0.0002631075696105039
28.183613200002583,0.0,0.0,0.0,-3.835966630079283e-06,4.866512833639704e-06,-0.0002984290557313441
28.232988399999158,0.0,0.0,0.0,-3.201168806813235e-05,-0.00010187929313670312,-0.0003026208299273264
28.27836689999822,0.0,0.0,0.0,4.3842124016348695e-05,-0.0002631057497642859,-0.00040502015773791515
28.334436700002698,0.0,0.0,0.0,-5.1748313279446845e-05,-2.6145424930285107e-06,-0.00034781436610552995
28.381584299997485,0.0,0.0,0.0,3.526512482911115e-05,0.00030284254192073615,-0.0002490541926363222
28.431311399996048,0.0,0.0,0.0,-2.6360590807744184e-05,0.0001972940153034249,-0.0002573288351016684
28.476669600000605,0.0,0.0,0.0,8.635743663702661e-06,0.0002835430485965117,-0.0001682874123371849
28.527858699999342,0.0,0.0,0.0,-2.8741719315857046e-05,-0.00047930933545201244,-0.00031667324164775493
28.5829797999977,0.0,0.0,0.0,1.139241905162909e-05,5.9399704897283954e-05,-0.00033187200552010205
28.63229599999613,0.0,0.0,0.0,3.054525289734578e-05,-0.0002139956923228161,-0.0003736717764766637
28.681740499996522,0.0,0.0,0.0,1.9693025102432627e-06,-0.00017247844174328843,-0.00039763731582202565
28.738202900000033,0.0,0.0,0.0,-1.80274508395057e-05,0.0006111914527002663,-0.0002812987121564794
28.7813118999984,0.0,0.0,0.0,3.4015716501397634e-06,-0.00037367633001441535,-0.0002690912816140364
28.828385699998762,0.0,0.0,0.0,-9.19038641718548e-06,8.524511162942721e-06,-0.00030050598687416443
28.881348000002617,0.0,0.0,0.0,1.9612292078091694e-05,2.2420164870364593e-05,-0.0002488097363070332
28.928059300000314,0.0,0.0,0.0,-3.760852212120228e-05,0.00016630020108209203,-0.0002588024549554793
28.983319999999367,0.0,0.0,0.0,1.2509230037816488e-05,-4.7683775452837465e-05,-0.00020295598214302804
29.03317799999786,0.0,0.0,0.0,-3.078098347947477e-05,0.0004368184575389327,-0.0001930451959448375
29.076111900001706,0.0,0.0,0.0,5.671994688388534e-05,-0.00025437137114899227,-0.00029300314141321947
29.135102300002472,0.0,0.0,0.0,-3.6471166836229426e-05,-1.7393733672515733e-05,-0.00036706965690032833
29.175946499999554,0.0,0.0,0.0,1.1065822830928855e-05,-1.1340732129084935e-05,-9.857450213009008e-05
29.234319199997117,0.0,0.0,0.0,-7.441196172402644e-05,0.0006375097920511813,-6.462255732649902e-05
29.275485400001344,0.0,0.0,0.0,-3.5037556787047176e-05,0.0007476711128381848,2.1363207072584938e-05
29.336868200000026,0.0,0.0,0.0,7.595568140036689e-06,-1.9202515336699532e-05,1.6013535370849383e-06
29.383540599999833,0.0,0.0,0.0,-1.3455462131421581e-05,2.328556755269265e-07,8.971568281968411e-06
29.432225199998356,0.0,0.0,0.0,8.98360995325977e-06,-3.5024616279707063e-06,-3.360549592601672e-06
29.481977700001153,0.0,0.0,0.0,2.9819309687993843e-06,-1.163153152116941e-07,-1.654730948490718e-05
29.530755200001295,0.0,0.0,0.0,-4.89940109618048e-06,-1.1727550961919971e-06,-1.1633763266536456e-05
29.585441399998672,0.0,0.0,0.0,-6.400644292716122e-06,-4.0110051906372514e-07,1.2294990896742978e-06
29.632425399999192,0.0,0.0,0.0,6.449857480181836e-06,-2.8119653110333333e-06,-1.0311598721816511e-05
29.677056000000448,0.0,0.0,0.0,-6.742883824203499e-06,8.506890021632258e-07,-4.975984300491429e-06
29.732508000000962,0.0,0.0,0.0,3.918138134445986e-08,-8.109249117963139e-07,3.2291270780027117e-07
29.78586920000089,0.0,0.0,0.0,-5.203125613586098e-07,3.168424735928201e-06,-6.573200904343027e-06
29.82644640000217,0.0,0.0,0.0,4.406431261039249e-07,-2.9318949276773944e-06,6.229455812877015e-07
29.875987499995972,0.0,0.0,0.0,5.870628592932457e-06,2.7393628018494237e-06,-6.466331897791178e-06
29.92507160000241,0.0,0.0,0.0,-4.796167962280306e-06,-9.36185037901451e-06,-1.2397756502152219e-05
29.98115809999581,0.0,0.0,0.0,1.3831066662677953e-05,-7.466362325930701e-07,-7.353217958652818e-06
30.03402339999593,0.0,0.0,0.0,-3.3282320161226913e-06,3.855046134242281e-06,-5.270067491064414e-06
30.08292849999998,0.0,0.0,0.0,-1.0577937903491692e-05,1.6149443101206956e-06,-9.410809776568362e-06
30.126066199998604,0.0,0.0,0.0,1.184217957201008e-05,-1.6728555855297291e-06,4.780378565097944e-06
30.18254750000051,0.0,0.0,0.0,-1.1980883072670803e-05,5.143372568055921e-07,6.391506787075313e-06
30.233736399997724,0.0,0.0,0.0,-7.887368116976803e-07,-3.954382210260043e-06,-5.513175598558852e-06
30.276386799996544,0.0,0.0,0.0,2.804482888665559e-07,2.877267607341767e-06,-7.779514947143797e-06
30.32507120000082,0.0,0.0,0.0,-6.8260626847905e-07,4.968351718305325e-07,-3.7281744235340668e-06
30.378258999997342,0.0,0.0,0.0,5.901300639368692e-06,-2.2007627034317324e-06,-9.61730514315069e-06
30.435682800001814,0.0,0.0,0.0,-5.423854350644508e-06,4.3227421156565715e-07,-1.3089984199724034e-05
30.476845400000457,0.0,0.0,0.0,7.629428211848317e-06,-1.3570904132058215e-06,-6.950874981340143e-06
30.534104899998056,0.0,0.0,0.0,-1.639693541495363e-07,-1.8540769212299362e-06,-8.660243981835908e-06
30.582794900001318,0.0,0.0,0.0,-6.283651227118186e-06,7.186318755862794e-07,-1.5387969203269423e-05
30.62843569999677,0.0,0.0,0.0,6.295039594038346e-06,1.2966865628367711e-06,-9.93568200646192e-06
30.67484510000213,0.0,0.0,0.0,-8.621092790807211e-06,-4.207864980784869e-07,-1.577165118377657e-05
30.734295199996268,0.0,0.0,0.0,1.2057711665163491e-05,9.398310252017638e-07,-1.5487977806325566e-05
30.77987479999865,0.0,0.0,0.0,-1.155504454264994e-05,3.3917761072209537e-06,-1.3975151557758692e-06
30.83029389999865,0.0,0.0,0.0,6.704841540087833e-06,-5.980169323985696e-06,-9.613601812396294e-06
30.882349599996815,0.0,0.0,0.0,2.292784774268e-06,-1.7572906021571497e-06,-1.1900525589451694e-05
30.926534500002163,0.0,0.0,0.0,1.2402755531771722e-07,3.1027005693735364e-07,3.0832068213616602e-06
30.97534540000197,0.0,0.0,0.0,-8.827170087625083e-06,4.881365572112944e-06,3.408287134360078e-06
31.024597800002084,0.0,0.0,0.0,6.456472507563919e-06,-7.043234570026309e-06,-8.701264705736766e-07
31.084980300001916,0.0,0.0,0.0,-1.5720410372194432e-06,3.7503473492525772e-06,-2.648503497019946e-06
31.127133399997547,0.0,0.0,0.0,6.70286031750777e-06,-2.5214572772133624e-06,-6.163818885366678e-06
31.175916699998197,0.0,0.0,0.0,-5.575378686988561e-06,4.607019341609909e-07,-1.9561682579906803e-05
31.225464900002407,0.0,0.0,0.0,1.056135832330126e-06,1.0196345989495012e-06,-8.637590258541121e-06
31.28709119999985,0.0,0.0,0.0,-6.402415647547283e-06,-1.0732034462179546e-05,-4.351372180670307e-06
31.332426599998144,0.0,0.0,0.0,9.901347017723946e-08,9.495137418415256e-06,4.730140770359877e-06
31.374913300001936,0.0,0.0,0.0,6.030174423955728e-06,-7.5847829052494986e-06,-6.246455053346565e-06
31.425170599999547,0.0,0.0,0.0,-7.04385305243958e-08,-2.004783356642778e-06,-4.244692907068928e-06
31.476329899996927,0.0,0.0,0.0,8.357901366618827e-06,3.1275020504453536e-06,-1.019702761719939e-06
31.53353249999782,0.0,0.0,0.0,-1.5207024133497615e-05,2.221115097714072e-06,-2.6405398967961346e-06
31.57523019999644,0.0,0.0,0.0,6.452625679851176e-07,-5.8018670680076104e-06,2.162777225136541e-06
31.632707700002356,0.0,0.0,0.0,-8.205458474162645e-07,2.8132022806832073e-06,4.796336493701965e-06
31.679188100002648,0.0,0.0,0.0,1.6180499987370864e-07,-1.647903875732659e-06,3.0608087616410836e-06
31.733726899998146,0.0,0.0,0.0,1.554563823872592e-06,8.092267882207533e-07,-1.6813017110043534e-06
31.78464399999939,0.0,0.0,0.0,3.7493879284758156e-06,-7.367925406943112e-07,1.2350218211319212e-07
31.831696499997634,0.0,0.0,0.0,9.616422657686157e-06,-4.38237643368347e-06,-9.296640364938532e-06
31.88232070000231,0.0,0.0,0.0,-1.4283694917523289e-05,6.018984983141585e-06,5.0638536425614e-06
31.932467300001008,0.0,0.0,0.0,1.4164639510001004e-05,-2.375622602183428e-06,-8.830841334681682e-06
31.975246900001366,0.0,0.0,0.0,-1.5150167581474392e-05,1.6210211363670878e-06,-4.413661133903467e-06
32.02581810000265,0.0,0.0,0.0,1.4647075168759725e-06,-4.5050653255904576e-07,6.358864601470551e-06
32.08292619999702,0.0,0.0,0.0,6.211469302073113e-06,-6.913029317868833e-06,-4.355717677613746e-06
32.12733170000138,0.0,0.0,0.0,5.5404279384635835e-06,2.4029505847045493e-06,-1.2097136611099972e-05
32.176873700002034,0.0,0.0,0.0,-6.771799045137409e-06,-4.512759666502344e-06,-4.915312344913747e-06
32.227467899996554,0.0,0.0,0.0,-5.7267683688644695e-06,8.927668807017757e-06,3.171963908354148e-06
32.27643299999909,0.0,0.0,0.0,5.272168857148868e-07,-3.539706400715529e-06,4.936377979420896e-06
32.33468510000239,0.0,0.0,0.0,5.60933656581557e-06,-5.690291786155227e-07,-4.6511999104326665e-06
32.38247440000123,0.0,0.0,0.0,-4.9871426067893736e-06,-5.666307071653475e-07,-8.636673349239547e-06
32.43269370000053,0.0,0.0,0.0,5.608544510575619e-06,-4.2731721256992515e-06,2.9560513271779723e-06
32.47514249999949,0.0,0.0,0.0,-6.184385846203846e-06,1.4972521739195613e-06,1.6726101683683648e-06
32.52796919999673,0.0,0.0,0.0,8.689820283795063e-06,-7.739551135555489e-06,-3.407484250365732e-06
32.57794180000201,0.0,0.0,0.0,-7.509384120166612e-06,5.6736628753920396e-06,-7.507524446573551e-07
32.62607679999928,0.0,0.0,0.0,-1.177525675185376e-06,2.3484628898237556e-06,1.8734410318014266e-06
32.68211699999665,0.0,0.0,0.0,6.225950114447937e-06,-2.5458297477945057e-06,-2.858654163395123e-06
32.732698300002085,0.0,0.0,0.0,2.621935016679651e-06,-4.990410725219955e-06,-6.051715721894132e-06
32.77844280000136,0.0,0.0,0.0,-3.235011934333618e-06,1.97116119032473e-06,-9.365682969569729e-06
32.83314760000212,0.0,0.0,0.0,5.755137149257467e-06,-4.402622226300811e-07,-2.9078457663115545e-06
32.87456399999792,0.0,0.0,0.0,-1.1090723874590881e-05,3.370191636242235e-06,-4.476835300229861e-06
32.93177039999864,0.0,0.0,0.0,-1.9781093916920744e-07,-7.440785783810083e-06,3.543042028739232e-06
32.983621499995934,0.0,0.0,0.0,-1.0093316060544364e-06,6.106811641893518e-06,-5.375137723064116e-06
33.03210630000103,0.0,0.0,0.0,9.01869839960303e-06,-2.0252924338390097e-06,3.6959196313278655e-06
33.08078789999854,0.0,0.0,0.0,-8.066633075962686e-06,3.967409542840576e-06,4.1060740009775955e-06
33.1314452000006,0.0,0.0,0.0,8.130486720242196e-06,-7.2099151207796184e-06,1.321983829907476e-06
33.18325080000068,0.0,0.0,0.0,-7.711056613694533e-06,1.461826649908791e-06,-5.602487536275734e-06
33.23762259999785,0.0,0.0,0.0,1.2149807874292998e-05,5.611170084529419e-07,-2.1949847940987376e-06
33.275345100002596,0.0,0.0,0.0,-5.288976970913242e-07,4.923197952101995e-07,-7.244107994619243e-07
33.32948690000194,0.0,0.0,0.0,-6.886849223698678e-06,2.150691279131741e-06,6.254201208574705e-06
33.37554049999744,0.0,0.0,0.0,-5.034646736993129e-06,-7.697830441009205e-06,-5.247312235779446e-06
33.43428519999725,0.0,0.0,0.0,8.378877970309835e-07,1.4739215350250468e-06,7.567847801804015e-06
33.48215099999652,0.0,0.0,0.0,6.499174619045215e-06,-3.9604007420438625e-06,1.294751168323748e-06
33.53223530000105,0.0,0.0,0.0,-7.060240932153984e-06,4.754468560743047e-06,6.162915415237646e-06
33.57520569999906,0.0,0.0,0.0,5.7921390590186766e-06,-3.825084757619161e-07,1.900834454801665e-06
33.636247299997194,0.0,0.0,0.0,-6.306801779710962e-06,1.7351815249484419e-06,-3.5013716809046014e-06
33.68417760000011,0.0,0.0,0.0,4.915910813608364e-07,-1.2561973762446186e-06,-9.602336231012147e-06
33.731762600000366,0.0,0.0,0.0,8.764542356550088e-06,-3.81751826150237e-06,3.06606315760574e-06
33.77455380000174,0.0,0.0,0.0,-8.52722453751084e-06,4.002785557784601e-06,2.0728881669912523e-06
33.83186439999554,0.0,0.0,0.0,1.0265383828624338e-06,-4.440819450562701e-06,4.0767526137292975e-06
33.88302699999622,0.0,0.0,0.0,-9.143521539517967e-07,3.0528800357869996e-06,5.273200265560467e-06
33.925362199996016,0.0,0.0,0.0,-1.0238763714958798e-06,-5.09076238248243e-06,6.199925010132311e-06
33.974122100000386,0.0,0.0,0.0,9.77971711122119e-07,1.618951032214768e-06,3.0719511080282567e-06
34.032344100000046,0.0,0.0,0.0,-2.0403906876850841e-07,8.611502050637138e-07,-1.7022135157498831e-06
34.08401910000248,0.0,0.0,0.0,4.065092018444322e-07,-5.645816184071954e-06,5.151115456021625e-07
34.13171919999877,0.0,0.0,0.0,1.9186090572906053e-07,-5.943969019318479e-07,-1.51687280760272e-06
34.18535059999704,0.0,0.0,0.0,-7.021075675723437e-07,5.2381085827595386e-06,1.4496925793150968e-06
34.22449989999586,0.0,0.0,0.0,4.971920514522492e-07,-8.145231231098504e-06,4.6341044738946166e-06
34.281660399996326,0.0,0.0,0.0,8.870408469107296e-06,3.980936654516603e-06,4.900573912820626e-06
34.33208139999624,0.0,0.0,0.0,-9.735603598998836e-06,2.2692258610522983e-06,-1.0786199376631463e-05
34.37646230000246,0.0,0.0,0.0,1.3115287779080497e-05,-1.955648369398238e-06,-9.037987270828323e-07
34.43228729999828,0.0,0.0,0.0,-5.670297727075469e-06,5.6823636667271284e-08,-2.939579705321211e-06
34.480671500001336,0.0,0.0,0.0,-6.351110951767552e-07,-3.1530239499167316e-06,-5.0670567813070714e-06
34.53085319999809,0.0,0.0,0.0,-6.693386030571591e-06,2.3550130354544428e-06,9.687059769933316e-07
34.5814298999976,0.0,0.0,0.0,5.4318153226247274e-09,-5.926845134165872e-06,-8.311212685150669e-07
34.62518959999579,0.0,0.0,0.0,9.098140408009221e-07,1.3225858842436838e-06,3.2821409573211844e-06
34.67826929999865,0.0,0.0,0.0,7.993311578949495e-06,-1.7059490201624978e-06,5.585389371938737e-07
34.732925800002704,0.0,0.0,0.0,-3.3389286504169137e-06,1.7492006475608189e-07,1.2395569330371376e-06
34.77829909999855,0.0,0.0,0.0,7.96318325063381e-06,-2.537960638704452e-06,-9.247194219314869e-06
34.824594600002456,0.0,0.0,0.0,-1.2040489948851943e-05,4.161672834715295e-06,1.540917384254473e-06
34.88170089999767,0.0,0.0,0.0,5.720651002868803e-06,-4.1438517296580677e-07,-3.1098670512244575e-06
34.92515139999887,0.0,0.0,0.0,-1.6564275124900799e-07,-5.923432005224023e-07,-3.603105254612691e-06
34.97516419999738,0.0,0.0,0.0,-5.518397288931153e-06,-9.743504033205323e-08,-5.592411409094874e-06
35.02471030000015,0.0,0.0,0.0,9.939711844370786e-06,-1.4885745578512192e-06,-4.564966550852299e-06
35.0760164999956,0.0,0.0,0.0,-9.362376221557979e-06,-2.6033903381240037e-06,8.882475953146294e-06
35.13530879999598,0.0,0.0,0.0,-1.0685195857979845e-06,2.200409893552602e-06,-9.638520709258686e-07
35.183892399996694,0.0,0.0,0.0,6.538825207506931e-06,-2.113708902211026e-06,-4.73291772339104e-06
35.23285319999559,0.0,0.0,0.0,-5.7893205058610835e-06,-1.566377497555706e-06,-2.467547099778594e-06
35.27696840000135,0.0,0.0,0.0,-1.323411998780173e-07,-9.776292420970068e-07,9.49814611117885e-08
35.32899499999621,0.0,0.0,0.0,7.77912942884285e-06,9.634341356456894e-07,-1.4141266291054667e-07
35.37771999999677,0.0,0.0,0.0,-8.47784013887571e-06,-2.3799688598958554e-06,5.473141881401248e-07
35.42942410000251,0.0,0.0,0.0,5.607882950772242e-06,-3.931921431004042e-06,-1.3258227850150986e-06
35.48226530000102,0.0,0.0,0.0,5.739131361028347e-06,3.2297417516876537e-06,-5.568474995079624e-07
35.53259380000236,0.0,0.0,0.0,-1.0623064186055576e-05,3.1429582900035867e-06,3.225772554838332e-06
35.57751989999815,0.0,0.0,0.0,-1.1745146332807332e-06,-1.0962735636662733e-06,-2.663567045392769e-06
35.62791229999857,0.0,0.0,0.0,5.923256824504904e-06,-3.603442733700761e-06,1.2223212223044068e-07
35.68110049999814,0.0,0.0,0.0,3.3064597786353963e-06,-5.151288989100232e-06,-4.7311791728370294e-06
35.72502159999567,0.0,0.0,0.0,-3.4675193813243147e-06,4.593536153802417e-06,-9.983758328738358e-06
35.776786299997184,0.0,0.0,0.0,-5.071534919038037e-06,-1.8451013579344498e-06,4.614551715974119e-06
35.83434269999998,0.0,0.0,0.0,-7.469472408795288e-11,9.76364930513268e-07,-4.997705109712152e-07
35.88332970000192,0.0,0.0,0.0,5.187036237471875e-07,3.1110949463466413e-06,-5.640770373556781e-06
35.93239419999736,0.0,0.0,0.0,3.837679844947708e-10,-3.3315938419649996e-06,1.3985463637187763e-06
35.98213479999686,0.0,0.0,0.0,-3.8346285027801266e-07,-1.073464446817125e-06,9.036286572363317e-06
36.026315399998566,0.0,0.0,0.0,-4.379702434345653e-07,2.1895277761998866e-06,-1.6234129051136751e-06
36.08145559999684,0.0,0.0,0.0,1.4146756311851296e-05,-1.7444250420298215e-06,3.9176454427865225e-06
36.128219599995646,0.0,0.0,0.0,-1.2992869345214855e-05,1.1728525452306157e-06,1.110051273642041e-05
36.18509459999768,0.0,0.0,0.0,-7.560959716874648e-07,-3.5646694112941555e-06,1.0543155319228775e-06
36.225058800002444,0.0,0.0,0.0,-5.100933599004307e-07,5.62410683415195e-07,-3.639377687749977e-07
36.28104370000074,0.0,0.0,0.0,3.007457444868952e-07,-2.939856661707997e-06,-8.299220057660696e-07
36.32721389999642,0.0,0.0,0.0,5.278019688549241e-06,5.502288058702741e-07,2.134231113230998e-06
36.38385259999632,0.0,0.0,0.0,1.1523581485993004e-06,-4.443568128196938e-06,-2.694540912884704e-06
36.43475159999798,0.0,0.0,0.0,7.1727881468822654e-06,2.0898325762480327e-06,-8.726291209818631e-06
36.480192900002294,0.0,0.0,0.0,-5.976213635859618e-06,-2.200260062133631e-06,-1.3943185983978679e-05
36.53173539999989,0.0,0.0,0.0,-6.346194267450179e-06,3.239910942086195e-07,-8.545836483901195e-06
36.57542090000061,0.0,0.0,0.0,6.312120402142222e-08,-3.432583549187375e-07,-2.448310045615422e-06
36.62824530000216,0.0,0.0,0.0,-9.343221797048775e-07,2.4332166251527754e-06,2.77632751400178e-06
36.68328520000068,0.0,0.0,0.0,7.889528060908072e-06,-7.846913669570702e-08,8.24655324752077e-06
36.732457400001294,0.0,0.0,0.0,-7.557576299167001e-06,7.697011741220765e-07,4.8048937263580856e-06
36.77708379999967,0.0,0.0,0.0,-1.45878521115915e-07,-1.38404238429656e-06,3.306760000031678e-06
36.82643110000208,0.0,0.0,0.0,3.0528706467802345e-07,-3.6533079543059823e-06,3.937004515374843e-06
36.87812819999817,0.0,0.0,0.0,6.671111333039636e-06,-1.0469071460906024e-06,-3.795718651924806e-06
36.92853269999614,0.0,0.0,0.0,4.734919667217286e-06,-3.5655563474327084e-06,-2.2184420254250294e-06
36.982110299999476,0.0,0.0,0.0,-5.866429937445908e-06,1.8482630222692888e-06,-5.359852851026866e-06
37.03309900000022,0.0,0.0,0.0,-4.913543540496275e-06,1.4889176241230222e-06,-7.670602751032643e-06
37.08040489999985,0.0,0.0,0.0,-5.571219548601856e-07,-4.078591897728584e-06,1.6899719020979878e-06
37.131922399996256,0.0,0.0,0.0,1.3498399039902902e-05,4.6232830120676865e-06,1.5102652161360957e-06
37.17649800000072,0.0,0.0,0.0,-1.4278100518569467e-05,1.1993665938254168e-06,9.240514340852613e-06
37.23153060000186,0.0,0.0,0.0,5.243471373416894e-06,-2.7058350458127883e-07,-1.3000925256541122e-06
37.280341199999384,0.0,0.0,0.0,-5.899766779630093e-06,2.3769561758774683e-06,9.488267842059405e-06
37.325092699997185,0.0,0.0,0.0,1.2083278596005386e-06,-1.0502584545877118e-05,8.152790559268405e-06
37.3744852000018,0.0,0.0,0.0,7.376999105261956e-08,2.860292119214475e-06,7.429758174289168e-06
37.425272499996936,0.0,0.0,0.0,7.508587259627339e-06,1.3375219362546703e-06,7.234799280798681e-06
37.478759500001615,0.0,0.0,0.0,4.118367489721661e-06,-1.781353384032297e-06,-2.144954446770106e-06
37.52718900000036,0.0,0.0,0.0,-1.1135305046989922e-05,2.6888536282498075e-06,3.4792490732420923e-06
37.581300400001055,0.0,0.0,0.0,-8.828528478600077e-07,-2.132349557724884e-06,-4.946155434419307e-06
37.62524439999834,0.0,0.0,0.0,1.2138880791231801e-05,-3.7005322265468993e-06,5.058520577304406e-06
37.67718679999962,0.0,0.0,0.0,-1.2096481366961629e-05,1.410691927479368e-06,-3.712573435131408e-06
37.72471629999927,0.0,0.0,0.0,1.0581531755367328e-06,-4.626490144482158e-06,5.2876528893799365e-06
37.7811270999955,0.0,0.0,0.0,-6.642012011192768e-07,3.97687920257219e-07,4.970484249839567e-06
37.82843639999919,0.0,0.0,0.0,7.0918738123363865e-06,1.701401589635357e-06,6.604025560906164e-07
37.883207699997,0.0,0.0,0.0,-8.391867074959247e-07,-2.7518994455167014e-06,5.182135117719212e-06
37.92690810000204,0.0,0.0,0.0,2.472883577719742e-06,-2.1906395036965365e-06,-5.54178387957225e-06
37.974208100000396,0.0,0.0,0.0,-2.348264605571492e-06,-4.9531778449413636e-06,4.802378184979149e-06
38.025638499995694,0.0,0.0,0.0,5.7260875649389025e-06,4.293629847049934e-06,-8.65620190253324e-06
38.08539400000154,0.0,0.0,0.0,-1.2211843433290043e-05,6.129780675345764e-06,-3.4772314996339563e-06
38.13427309999679,0.0,0.0,0.0,-5.787070426206279e-08,-1.3573582737006705e-07,1.1490187549865443e-05
38.18087519999972,0.0,0.0,0.0,6.562669120103818e-06,-3.102158573245124e-06,-2.004863642382241e-06
38.23208650000015,0.0,0.0,0.0,-6.06158691976914e-06,7.927539213847274e-07,4.857367026220715e-06
38.27367249999952,0.0,0.0,0.0,1.3570063923042724e-05,-4.137029550445694e-06,1.1743603142234588e-05
38.33452820000093,0.0,0.0,0.0,-8.132889216146431e-06,-4.060515278721566e-07,-5.882000154066421e-06
38.38088920000155,0.0,0.0,0.0,8.36436959966312e-06,-3.5597868781287908e-06,-7.087045066799422e-06
38.42967769999814,0.0,0.0,0.0,-7.724745010596537e-06,3.830055259343929e-06,-9.269685170632667e-06
38.48288319999847,0.0,0.0,0.0,-5.709712959721888e-06,-3.1101130926152404e-06,2.0464449986704897e-06
38.53284110000095,0.0,0.0,0.0,-4.2692613091497157e-07,2.7551556798147336e-06,2.865289949439367e-06
38.58324970000103,0.0,0.0,0.0,4.088331194372095e-07,-1.5522374285795835e-06,-1.3868896498173087e-06
38.63081560000137,0.0,0.0,0.0,6.1370642371101455e-06,1.4800378570650888e-06,5.767428603216027e-07
38.677087299998675,0.0,0.0,0.0,4.882856828391454e-07,-5.007452218662011e-06,2.1618776006831453e-06
38.72496400000091,0.0,0.0,0.0,1.6963799578396553e-07,-1.4437393271507802e-06,-8.098479342975573e-06
38.775855100000626,0.0,0.0,0.0,-6.461989099041908e-06,2.27901656822063e-06,-7.118861153112889e-06
38.823062099996605,0.0,0.0,0.0,7.05013621236453e-07,-5.421903070843004e-06,-1.47663780111077e-06
38.882974399995874,0.0,0.0,0.0,-1.3277503026321114e-06,7.453418068512012e-06,-1.1010603861782556e-06
38.92451009999786,0.0,0.0,0.0,5.986551272569655e-07,-7.483890752528409e-07,1.2592771107256638e-05
38.98484549999557,0.0,0.0,0.0,-1.5113113342524e-07,-1.792574909462258e-07,5.946320403912813e-06
39.02823499999795,0.0,0.0,0.0,2.0064972314224443e-07,-2.573702961913362e-06,-3.0276527639341877e-06
39.07461759999569,0.0,0.0,0.0,-1.1088358349966299e-07,-2.137660925641528e-06,4.695898914433583e-06
39.12362269999721,0.0,0.0,0.0,5.409736715653966e-06,-5.069404586295784e-06,8.945485437273925e-06
39.185241599996516,0.0,0.0,0.0,2.901433001771992e-06,1.8758033660261822e-06,4.523646153670547e-06
39.2238234999968,0.0,0.0,0.0,-5.599981002310504e-07,1.799552211394543e-06,1.0999251212208192e-05
39.27457599999616,0.0,0.0,0.0,-3.1745906567103428e-09,-1.494613397719953e-06,1.113123385356405e-05
39.32562560000224,0.0,0.0,0.0,-1.7134284193810338e-06,-1.2594685955963786e-06,-3.766252329652212e-06
39.38316869999835,0.0,0.0,0.0,6.631126425653247e-06,-2.8614146654549757e-06,-3.6684172333335646e-06
39.4324134999988,0.0,0.0,0.0,-1.231055720793027e-05,2.2857345168600335e-06,-1.94521077002136e-06
39.48198129999946,0.0,0.0,0.0,7.82775173861651e-06,1.2457237145982058e-07,5.366658876357287e-06
39.53485279999586,0.0,0.0,0.0,2.2274227700977963e-07,-1.4185675714543367e-06,-1.914777647635113e-06
39.58203230000072,0.0,0.0,0.0,-8.341041574639914e-06,2.4834086532192792e-06,2.660485171012712e-07
39.628022700002475,0.0,0.0,0.0,-2.1704065839991329e-07,-4.4211413401401934e-07,6.200614747391212e-08
39.67680979999568,0.0,0.0,0.0,9.091344404626038e-07,-5.2117395236207395e-06,1.1811690049507032e-06
39.730299700000614,0.0,0.0,0.0,-2.1261910749746472e-07,-2.9641376349742777e-06,7.568487270302246e-08
39.77478919999703,0.0,0.0,0.0,5.83433301391878e-06,3.888821987345258e-06,3.968201106868812e-06
39.83211589999701,0.0,0.0,0.0,-5.771773634317605e-06,-1.1505487627033767e-06,3.7954882455009136e-06
39.880005499995605,0.0,0.0,0.0,-1.968446044634478e-07,1.4222435122613855e-06,9.321959372161628e-06
39.92338809999637,0.0,0.0,0.0,1.2025011533856324e-05,7.071727846805622e-07,3.1047854481810326e-06
39.97495859999617,0.0,0.0,0.0,-3.4944364821575354e-06,-2.7995156124102214e-06,1.3650352618866108e-05
40.029496900002414,0.0,0.0,0.0,2.4480786181737244e-06,-3.475501712468402e-06,-3.159810057559931e-06
40.08319250000204,0.0,0.0,0.0,-1.031883096392858e-05,-3.1696545043728847e-06,5.4307068427862155e-06
40.13135080000211,0.0,0.0,0.0,1.3207779960445602e-05,-3.990991206505316e-07,4.197197209133703e-07
40.18257319999975,0.0,0.0,0.0,-2.176446597705834e-06,7.417779572814588e-07,-5.0313121919547496e-06
40.231701099997736,0.0,0.0,0.0,-1.1190694339842788e-05,5.109981854101921e-06,1.8033169866715662e-06
40.283711199997924,0.0,0.0,0.0,-5.733907461434738e-07,-3.760505874402583e-07,1.2752616640968989e-05
40.33178159999807,0.0,0.0,0.0,3.9545904492016455e-07,-7.021731771592487e-06,5.646741444006638e-06
40.37936659999832,0.0,0.0,0.0,5.973302590441539e-07,1.0518203614382217e-06,-1.3340234713116945e-06
40.424158399997395,0.0,0.0,0.0,-6.147864413772114e-07,4.0074757559353035e-06,9.956462146519381e-06
40.476336899999296,0.0,0.0,0.0,-4.88816161015014e-07,-7.376376230022902e-06,8.513562635419904e-06
40.52439610000147,0.0,0.0,0.0,8.444073279970092e-07,3.668857371411545e-06,9.93698235972117e-06
40.58246060000238,0.0,0.0,0.0,-8.30294773230727e-07,4.17134436009691e-06,7.84088739070584e-06
40.63164710000274,0.0,0.0,0.0,7.578038272631926e-07,-7.305907285888615e-06,2.784905361229155e-06
40.67474979999679,0.0,0.0,0.0,1.3511389540489612e-05,-1.0582183601462554e-07,-2.3477088118050534e-06
40.72482869999658,0.0,0.0,0.0,-1.3844629967229212e-05,5.3242756667413245e-06,2.242730101096533e-06
40.775129499998,0.0,0.0,0.0,-9.538105740885767e-07,5.824023588028551e-07,2.51223181112185e-07
40.830720699996164,0.0,0.0,0.0,8.666602504601062e-06,-6.426243853177525e-06,3.792654412070589e-06
40.88267629999609,0.0,0.0,0.0,6.4362627649231335e-06,4.068123819973127e-07,-1.6669907434151612e-06
40.92519840000023,0.0,0.0,0.0,-1.3352037912023166e-05,-1.8496724196793315e-06,-3.4572570985854102e-06
40.97859849999804,0.0,0.0,0.0,4.935603334112052e-07,-3.4827656697043276e-06,6.974868890247997e-06
41.029916100000264,0.0,0.0,0.0,1.1600402830124015e-05,3.3332934548907963e-06,2.8109723146689337e-06
41.082347700001264,0.0,0.0,0.0,-1.1785154368858157e-05,-1.0426988472767358e-06,1.5520356567088945e-05
41.13252880000073,0.0,0.0,0.0,-1.8211517364543466e-06,-8.193600106156205e-07,4.087829889181723e-06
41.182218800000555,0.0,0.0,0.0,2.0848844466259902e-06,-7.124109498847584e-06,8.2983658459717e-06
41.225150599995686,0.0,0.0,0.0,5.083183324137055e-06,-1.1142481116544306e-06,3.048369835816107e-06
41.27330880000227,0.0,0.0,0.0,-1.4620759135828679e-06,8.949290492233646e-06,4.733864435933003e-06
41.325043700002425,0.0,0.0,0.0,-4.7027288276380305e-06,-1.7152893337754354e-06,-4.096194990606087e-06
41.38068460000068,0.0,0.0,0.0,7.373110218832891e-06,-2.914565711864481e-06,-2.322144198872065e-06
41.42653949999658,0.0,0.0,0.0,-2.3424029564257862e-07,1.1455312915663612e-07,-1.3094050680671304e-05
41.481854799996654,0.0,0.0,0.0,-7.625274140300709e-06,-1.3569494656346359e-06,-7.424959157835879e-06
41.526377900001535,0.0,0.0,0.0,4.2985784172255856e-07,1.1118745967084317e-06,5.6651991818213914e-06
41.577477899998485,0.0,0.0,0.0,-2.862546114843492e-08,1.2522800519650604e-06,1.8610897194044546e-06
41.63252400000056,0.0,0.0,0.0,9.424732614508316e-06,-3.939427732820601e-06,-1.0850664946695308e-06
41.681073300002026,0.0,0.0,0.0,-9.765155131989481e-06,1.0804057536872992e-07,-8.210633872634588e-06
41.72547659999691,0.0,0.0,0.0,5.948329325534934e-06,2.635720396543293e-06,-2.2682520688295138e-07
41.78175100000226,0.0,0.0,0.0,9.553546269142913e-06,-7.361549797350549e-06,-8.192567745595561e-06
41.825912499996775,0.0,0.0,0.0,-9.050634534460604e-06,4.775870266535477e-06,5.286949554887253e-06
41.873482299997704,0.0,0.0,0.0,-5.188715124970611e-06,-5.192088967534947e-06,5.20099623236093e-06
41.93636610000249,0.0,0.0,0.0,-9.317996001552272e-07,5.077739465250501e-06,4.667908387918086e-06
41.9750264999966,0.0,0.0,0.0,9.04461877040267e-07,-4.015152479249914e-06,6.206214682423793e-06
42.03377180000098,0.0,0.0,0.0,5.545818579347549e-06,-1.65775336944897e-06,1.1109268908621448e-05
42.081482399997185,0.0,0.0,0.0,3.4270022357969646e-07,5.752965903045715e-07,-5.063978424697633e-06
42.12358780000068,0.0,0.0,0.0,-6.561852746964036e-06,1.7313817718848853e-06,-2.253637923995052e-06
42.17682319999585,0.0,0.0,0.0,7.178168588858696e-07,-3.957844781694887e-06,1.1035398186865803e-05
42.23172689999774,0.0,0.0,0.0,5.978277725892499e-06,-2.0537303709121856e-06,1.1587706786849814e-05
42.27884199999971,0.0,0.0,0.0,8.047670377496881e-06,3.510814584886019e-06,1.7182582598050756e-06
42.32937780000066,0.0,0.0,0.0,-1.4517387973182637e-05,-8.955153363510334e-07,-6.293543117081528e-06
42.381074400000216,0.0,0.0,0.0,1.7854934709141583e-06,-2.876131557782992e-06,1.0739746308746857e-05
42.428249899996445,0.0,0.0,0.0,-1.96028107997934e-06,3.6035311201763384e-06,6.529902519622916e-06
42.48175220000121,0.0,0.0,0.0,1.7114536373652928e-07,-1.7479309823906814e-06,6.330123220875157e-06
42.531905700001516,0.0,0.0,0.0,-1.2877173273768948e-07,-2.7368807410800797e-06,2.857929918971521e-06
42.58086739999999,0.0,0.0,0.0,1.3022088364313464e-05,-4.719129210977141e-06,3.4243560133533883e-06
42.63535430000047,0.0,0.0,0.0,-1.1161607948147511e-05,3.238085152924859e-06,-3.5455925125842875e-06
42.67931040000258,0.0,0.0,0.0,-1.3303260852371411e-06,1.7535100102475248e-06,1.2996147053431575e-05
42.72555129999819,0.0,0.0,0.0,6.160113036718839e-07,-1.306170745512446e-06,1.583948690658592e-05
42.78070689999731,0.0,0.0,0.0,-9.15076618599019e-07,-1.0159915754972667e-06,1.418335896065e-05
42.834089299998595,0.0,0.0,0.0,-1.5125189961166588e-07,1.0468410886475502e-06,7.485473317777402e-06
42.886097299997346,0.0,0.0,0.0,2.968668646318064e-07,-5.9552145914276105e-06,5.450967233520958e-06
42.93066700000054,0.0,0.0,0.0,6.590157477033376e-06,2.1048465597543944e-06,4.083890556807778e-06
42.97976729999937,0.0,0.0,0.0,-7.08729321956034e-06,6.749499296794007e-07,-8.710185656114414e-06
43.0321896999958,0.0,0.0,0.0,1.2296458001481314e-06,-5.841598435071365e-06,5.223655746093565e-06
43.08424009999726,0.0,0.0,0.0,1.0195087600706967e-06,-1.0229167207629104e-06,6.311013099488048e-06
43.13349390000076,0.0,0.0,0.0,-1.0092966360782693e-06,1.1697115612694294e-06,7.3528544188903815e-06
43.17741730000125,0.0,0.0,0.0,-1.3138684704669027e-07,3.7845577008798504e-06,9.901886139238785e-06
43.2337383999984,0.0,0.0,0.0,8.39487924214685e-06,-5.768148054497811e-06,1.1942560105925025e-05
43.2844150000019,0.0,0.0,0.0,-7.44354806220659e-06,1.542958011540355e-07,8.703050532087193e-06
43.33122159999766,0.0,0.0,0.0,-6.298433984960361e-07,2.4509401019757644e-06,1.1578169921834893e-05
43.382285200001206,0.0,0.0,0.0,6.176872731151226e-06,-2.8104046593842555e-07,-5.572492856504802e-07
43.434628000002704,0.0,0.0,0.0,5.365369393153826e-07,-2.549190497611215e-08,1.7316409779434185e-06
43.48562959999981,0.0,0.0,0.0,-6.800606230435766e-06,4.368192308579084e-07,-5.907816495690147e-06
43.528636399998504,0.0,0.0,0.0,1.4630163549586e-05,-1.7401777675855892e-06,4.905867158666274e-06
43.583309100002225,0.0,0.0,0.0,-1.476528504232283e-05,-4.154481434048257e-06,-2.3110756969018755e-06
43.629564499999105,0.0,0.0,0.0,6.362673289196807e-06,5.3871078805485574e-06,-3.384353447299346e-06
43.682334099998116,0.0,0.0,0.0,5.821186390129775e-06,-8.714539218291356e-06,8.224502469137979e-07
43.73076649999712,0.0,0.0,0.0,-6.040735650339671e-06,-2.326295695812052e-06,2.9662784286333494e-06
43.780154799998854,0.0,0.0,0.0,-6.780137095606149e-06,8.631705497399627e-06,6.726941761965565e-06
43.829093399996054,0.0,0.0,0.0,1.624769603528376e-05,-6.311912347719084e-06,9.907039648068698e-06
43.87693030000082,0.0,0.0,0.0,-1.5420915413255812e-05,7.331675523069138e-06,6.28133020179404e-06
43.92584209999768,0.0,0.0,0.0,6.407700929359579e-07,-6.2776430868724495e-06,1.5616245387908704e-05
43.9800219999961,0.0,0.0,0.0,-1.8445776847109723e-07,1.211266133903549e-06,8.765193594399744e-06
44.03106339999795,0.0,0.0,0.0,-5.711148176381402e-07,-9.476582377574017e-07,7.231378804736033e-06
44.0804089000012,0.0,0.0,0.0,1.4828702276950984e-06,-3.6452366153009146e-06,5.482152316950371e-06
44.13340189999872,0.0,0.0,0.0,7.526075486654067e-06,3.2927237531642608e-06,9.713859651458787e-06
44.18209090000164,0.0,0.0,0.0,-1.2779256176950754e-06,-1.0362612447028846e-06,-5.904698138121964e-06
44.228441200000816,0.0,0.0,0.0,-1.6024939759521484e-06,-8.453724719623806e-06,3.2914136387523885e-06
44.27485069999966,0.0,0.0,0.0,8.673880967462659e-06,3.6297917749080494e-06,-2.0473639906539506e-06
44.32682100000238,0.0,0.0,0.0,-3.4102818064422964e-07,-1.7700722444173034e-06,7.333395127113561e-06
44.37715809999645,0.0,0.0,0.0,-5.075582808078751e-06,3.0696361496326417e-06,1.2487437337497276e-05
44.42542410000169,0.0,0.0,0.0,-9.26772612272966e-06,5.078297819880522e-07,9.397697898279745e-06
44.4824993000002,0.0,0.0,0.0,6.40419736492783e-06,-4.497538819472608e-06,1.2390988051009355e-05
44.53363430000172,0.0,0.0,0.0,-5.909920692693636e-06,4.8543673133675504e-06,1.2265112257812362e-05
44.58082509999804,0.0,0.0,0.0,-4.6227230517727126e-08,-1.3655801186258578e-06,1.0261195855572158e-05
44.62507740000001,0.0,0.0,0.0,8.26530211623897e-06,-9.527237266803033e-07,1.2651520947567608e-05
44.67498460000206,0.0,0.0,0.0,-7.756786721079433e-06,-2.4718446594577536e-06,1.2208481726113514e-05
44.728938899999775,0.0,0.0,0.0,4.767896170716124e-06,1.4894711430021842e-06,1.2946250341776927e-05
44.78214519999892,0.0,0.0,0.0,9.371297015308118e-06,-1.918487372643283e-06,5.111412782495925e-07
44.83433700000023,0.0,0.0,0.0,-8.843498565227014e-06,1.3941614589106244e-07,4.853891836580693e-06
44.88016619999689,0.0,0.0,0.0,6.675652269167109e-06,-7.444487806147371e-06,4.4742416811884345e-06
44.93293879999692,0.0,0.0,0.0,-1.2163938488694078e-05,8.018657306441911e-06,1.263817305807227e-06
44.98541750000004,0.0,0.0,0.0,5.442296198877834e-07,-2.5990326354404964e-06,1.7329472498688105e-06
45.03089809999801,0.0,0.0,0.0,6.575984835567976e-06,-3.1258284161319674e-08,-1.9533551043987602e-06
45.07486770000105,0.0,0.0,0.0,-6.81579962936529e-06,-6.782014960229829e-06,6.224497093220251e-06
45.12663199999952,0.0,0.0,0.0,1.0349475705355626e-06,-8.807237812576611e-07,5.270140975798272e-06
45.185261500002525,0.0,0.0,0.0,4.365879173029559e-06,4.049453567980501e-06,-8.528785625030053e-07
45.23032879999664,0.0,0.0,0.0,-6.71373941083227e-06,6.608661192627419e-06,6.552718557935775e-06
45.283268499995756,0.0,0.0,0.0,1.3263663397076851e-06,-7.324208920353558e-06,6.285777334394637e-06
45.33215339999879,0.0,0.0,0.0,1.2016698101454788e-05,-1.254991989282892e-06,7.262318995592891e-06
45.37711719999788,0.0,0.0,0.0,-1.2783661264974546e-05,2.4400516121608663e-06,-4.6673462455183205e-07
45.42765469999722,0.0,0.0,0.0,9.67735702432109e-06,-5.814777974298185e-06,6.347643175683085e-06
45.48083279999992,0.0,0.0,0.0,-9.993144535271953e-07,-4.237805353541585e-06,4.895088157270065e-06
45.531068099997356,0.0,0.0,0.0,-2.6616941441776823e-06,6.144697633119893e-06,6.050283767711616e-06
45.582219600000826,0.0,0.0,0.0,-5.190523644685378e-06,-1.6288670569750053e-06,8.166283571672203e-06
45.628281099998276,0.0,0.0,0.0,8.619718115814248e-07,-2.1303426463168124e-06,8.089467272716366e-06
45.67738880000252,0.0,0.0,0.0,-6.89175830327611e-07,6.680732395396966e-07,7.605776366362114e-07
45.732517099997494,0.0,0.0,0.0,7.840028160905975e-06,-8.277553424791961e-07,1.2663596295780215e-05
45.78339609999966,0.0,0.0,0.0,-7.245256734181658e-06,-2.9887094646625313e-06,1.2971963185817815e-05
45.833171599995694,0.0,0.0,0.0,-6.071895005318862e-07,3.958017249173356e-06,6.518670057851615e-06
45.88161399999808,0.0,0.0,0.0,1.4955784978951276e-05,-6.698553346751346e-06,8.255638133454318e-06
45.930576999999175,0.0,0.0,0.0,-7.657431583333844e-06,3.34083532922413e-06,-5.478202481381815e-06
45.97702120000031,0.0,0.0,0.0,1.2059148707306029e-06,-1.6412571625078772e-06,9.024459042917442e-07
46.034275300000445,0.0,0.0,0.0,-1.9584531624872495e-06,-2.324594703706041e-06,-9.221423130138597e-07
46.083621699996,0.0,0.0,0.0,-1.5872457166485135e-06,6.194362759133005e-06,1.0849408328141919e-06
46.128769800001464,0.0,0.0,0.0,-3.894287626788022e-06,-3.5920103918720193e-06,1.0993510026031486e-05
46.1768419,0.0,0.0,0.0,5.46738556843192e-06,-5.421893742727183e-06,3.892256060140237e-06
46.23319590000028,0.0,0.0,0.0,-6.254578120043899e-06,4.009848906481756e-06,3.6851212557309274e-06
46.285929300000134,0.0,0.0,0.0,7.092384018014263e-06,-1.768757124676533e-06,-3.079053423510649e-06
46.328718099997786,0.0,0.0,0.0,-6.841164125990766e-06,2.6759575128628508e-06,7.89421206918005e-06
46.381762199998775,0.0,0.0,0.0,1.1725151787421637e-05,-2.0316293979435684e-06,-2.6248923186230617e-06
46.430021000000124,0.0,0.0,0.0,-6.005482929729088e-06,-5.671012466095397e-07,-2.8016105484571193e-06
46.48111059999792,0.0,0.0,0.0,-5.474281455623065e-06,-1.9410131555249784e-06,5.831558983843944e-06
46.53066260000196,0.0,0.0,0.0,5.827003703770671e-06,7.917713201849712e-07,-1.470818595041869e-06
46.58074559999659,0.0,0.0,0.0,-4.821682925488706e-06,-5.655912909739312e-06,2.703360955645065e-06
46.62606860000233,0.0,0.0,0.0,3.442913984185101e-06,4.332891676648041e-06,1.6968837461985834e-06
46.68108940000093,0.0,0.0,0.0,-5.196816407212856e-06,2.541149492193857e-07,1.2078186314760183e-05
46.73208449999947,0.0,0.0,0.0,1.5629075060431014e-05,-6.6826538536314705e-06,1.0066720343483413e-05
46.78106129999651,0.0,0.0,0.0,-1.4277367292244312e-05,1.5845954629298777e-06,-2.6460795062701755e-06
46.82611989999714,0.0,0.0,0.0,-7.044983318550661e-07,3.270872249097877e-06,1.217560854849616e-05
46.87929109999823,0.0,0.0,0.0,3.908154897321892e-07,-4.849353156609318e-06,4.682339592194734e-06
46.9253669000027,0.0,0.0,0.0,4.4475427351308925e-07,1.4837875912919522e-06,1.389674994712278e-05
46.98343719999684,0.0,0.0,0.0,-1.0119401595515634e-06,-3.97149670136281e-06,-2.593619788583925e-06
47.028710699996736,0.0,0.0,0.0,5.136125403052999e-07,2.8798839017903665e-06,5.857393983254495e-06
47.0830169999972,0.0,0.0,0.0,7.757209275083354e-07,-3.914333758930086e-06,9.30583913331776e-06
47.13261629999761,0.0,0.0,0.0,5.08036519279847e-06,-8.629127985880986e-08,1.6126504664706315e-06
47.1793400999959,0.0,0.0,0.0,-4.505184205881465e-06,-6.386254953384366e-06,8.312464741485369e-07
47.233272500001476,0.0,0.0,0.0,-1.0837514088438301e-06,5.889353618345493e-06,1.0525825312715081e-05
47.281244500001776,0.0,0.0,0.0,6.1259010263805204e-06,5.885010467905916e-07,2.089160729417766e-06
47.33503969999583,0.0,0.0,0.0,-6.478925133594113e-06,-1.8523827748419326e-07,1.3216670902069563e-07
47.38026820000232,0.0,0.0,0.0,5.20508381661019e-07,-5.835260986003253e-07,-3.892654226467557e-06
47.429161300002306,0.0,0.0,0.0,8.693578010846212e-06,-2.374666805778998e-06,1.0832751188738617e-05
47.48312189999706,0.0,0.0,0.0,-8.444362921334089e-06,3.1721048271129526e-06,-1.662851755515047e-06
47.5324569000004,0.0,0.0,0.0,1.5458005067958138e-05,-9.314916624737455e-06,7.317754946529088e-06
47.58104260000255,0.0,0.0,0.0,-9.266881870609441e-06,5.0468850922549066e-06,-5.854126242055749e-06
47.63045659999625,0.0,0.0,0.0,4.4300475008457196e-07,-2.442059859109713e-07,-7.011467189696295e-06
47.68187939999916,0.0,0.0,0.0,-7.303719941978051e-06,1.8252649653360993e-07,2.6471016357919324e-07
47.73616269999911,0.0,0.0,0.0,5.567270656488902e-06,-9.345983043029914e-07,8.485007693771641e-06
47.78106459999981,0.0,0.0,0.0,-4.355377075990826e-06,-2.888528902325205e-06,1.0309136581268477e-05
47.83213429999887,0.0,0.0,0.0,-5.020030935312815e-07,1.6472779450973915e-06,1.0325071557811787e-05
47.87856330000068,0.0,0.0,0.0,5.12650048339768e-06,3.6544467758181644e-06,2.149683054327204e-06
47.931298499999684,0.0,0.0,0.0,-5.841736546934952e-06,-7.64606686275054e-06,4.851280188234989e-07
47.981709499996214,0.0,0.0,0.0,1.3245362501382027e-05,-1.0094419620593154e-06,2.8332514317537553e-06
48.02733199999784,0.0,0.0,0.0,-7.33518136630112e-06,3.1110292481150255e-06,1.2577517112217872e-05
48.08094859999983,0.0,0.0,0.0,-4.614167747635987e-06,-3.4316626610155304e-06,7.262145873453317e-06
48.13043489999836,0.0,0.0,0.0,-1.1376810351218839e-06,-4.6256841051267913e-07,3.7825617657061e-06
48.17623579999781,0.0,0.0,0.0,2.6363453202387205e-07,-2.1706325468060786e-06,4.097745773187811e-06
48.23304089999874,0.0,0.0,0.0,5.458367241040232e-06,3.811697267467356e-07,9.150907803043258e-06
48.274087199999485,0.0,0.0,0.0,2.0912626108960557e-06,3.0367030623509515e-06,1.0500022964258914e-05
48.32479369999783,0.0,0.0,0.0,2.1366552785066493e-07,-1.90884780272333e-06,1.0057944319844575e-05
48.384755699997186,0.0,0.0,0.0,-1.89477791618227e-06,3.213133381209199e-06,3.981499351197368e-06
48.424634900002275,0.0,0.0,0.0,-5.97258191692119e-06,-7.437991289109748e-07,1.5129032878572134e-05
48.47481759999937,0.0,0.0,0.0,6.46653012379601e-07,-8.164131584709183e-06,1.4427673342371781e-05
48.532046399996034,0.0,0.0,0.0,5.613677995899279e-07,-1.740315023250802e-07,5.557234470789207e-06
48.58159799999703,0.0,0.0,0.0,6.7392864212608165e-06,-1.0778407692673556e-07,4.926057018494758e-06
48.6297040999998,0.0,0.0,0.0,-6.942490517277065e-06,3.250235755708086e-06,-4.932232831715337e-07
48.68029779999779,0.0,0.0,0.0,1.2146574451671665e-05,-4.32409294205612e-06,7.567196089199565e-06
48.73151700000017,0.0,0.0,0.0,-1.2172111131682871e-05,1.74708566591057e-06,7.094520775746454e-06
48.78204790000018,0.0,0.0,0.0,6.12997194042882e-07,-3.42979031796603e-06,8.728990643421456e-06
48.82594199999585,0.0,0.0,0.0,-8.188048004053849e-07,3.7754448689110983e-06,1.3099499872247867e-05
48.88297430000239,0.0,0.0,0.0,6.5512105659670085e-06,-3.0628337337115445e-06,1.5532313784023046e-05
48.930356400000164,0.0,0.0,0.0,-6.733401224393138e-06,-4.579537832075764e-06,6.027231236217044e-06
48.97426370000176,0.0,0.0,0.0,1.342552460281189e-05,1.5377291991578038e-06,2.357621823403327e-06
49.025515900000755,0.0,0.0,0.0,2.971053857291293e-06,-4.903126912711121e-06,3.0756798597747674e-06
49.07621059999656,0.0,0.0,0.0,-1.5895825276981464e-05,9.132643397006574e-06,1.7575278587371874e-05
49.12477090000175,0.0,0.0,0.0,-5.559929097286808e-07,-5.436858276560881e-07,1.8829531294313088e-05
49.18168789999618,0.0,0.0,0.0,6.034759396432932e-07,-4.682560631024775e-06,1.5217801413887547e-05
49.22636819999752,0.0,0.0,0.0,-1.585565240980536e-08,1.4548895755320839e-06,8.700038249564377e-06
49.28078770000138,0.0,0.0,0.0,8.040933771964064e-06,-8.364689004517894e-06,1.0954627214375967e-05
49.3251087000026,0.0,0.0,0.0,3.3397539766696296e-07,2.9491664647957524e-07,5.9048532644054915e-06
49.379452900000615,0.0,0.0,0.0,6.378210127177479e-06,1.1570335509507117e-06,2.4666623857506667e-06
49.432564199996705,0.0,0.0,0.0,-1.4903363652911189e-05,4.749446852603803e-06,7.506134516823772e-06
49.48441740000271,0.0,0.0,0.0,6.010659968454389e-06,-4.206841355473494e-06,1.2704366176866378e-05
49.53178520000074,0.0,0.0,0.0,3.58652013969735e-07,2.743554591556454e-06,7.85084667205001e-06
49.574046399997314,0.0,0.0,0.0,2.1407089065726964e-08,-6.026397686762331e-06,-3.314534701350401e-06
49.63105209999776,0.0,0.0,0.0,-5.507386162483743e-06,1.3610192911785118e-08,4.32417111507105e-06
49.68537289999949,0.0,0.0,0.0,7.869461593669321e-06,-2.177881467074022e-06,1.609234414196698e-05
49.72586489999958,0.0,0.0,0.0,-8.063563770540804e-06,-6.174720060278652e-07,1.2357798058472937e-05
49.774464199996146,0.0,0.0,0.0,5.942527894146237e-06,-3.9443968147132995e-06,7.630024171574716e-06
49.83211379999557,0.0,0.0,0.0,-6.2168930933736e-06,5.406253734508616e-06,4.0387796836977166e-06
49.883190900000045,0.0,0.0,0.0,-3.226561516619424e-08,-1.4283200435913157e-06,6.454026006523893e-06
49.92542059999687,0.0,0.0,0.0,6.660883263084697e-06,-1.6362321491501763e-06,1.0678576890469855e-05
49.976645599999756,0.0,0.0,0.0,2.6440224962738405e-06,-3.953546447099852e-06,-2.008322032215327e-06
50.03203080000094,0.0,0.0,0.0,-9.36027012264613e-06,5.2195464866487265e-06,9.036135727071204e-06
50.08191919999808,0.0,0.0,0.0,5.7426984093741604e-06,-3.941978803714399e-06,1.4570988838570211e-05
50.13462419999996,0.0,0.0,0.0,-4.833633533757712e-06,3.304222147510145e-06,3.683760983094394e-06
50.18351099999563,0.0,0.0,0.0,8.43891154245279e-06,-3.7693739110251274e-06,7.352808194856576e-06
50.22810439999739,0.0,0.0,0.0,-7.70146692234967e-06,4.080739571522688e-07,1.706036333226343e-05
50.27572209999926,0.0,0.0,0.0,3.9034239732101025e-06,1.596124135815025e-06,1.7949008583483723e-05
50.3285831999965,0.0,0.0,0.0,2.1878756217366445e-06,1.1019812917705952e-06,8.876376083128406e-06
50.381052400000044,0.0,0.0,0.0,-6.91735321105092e-06,-5.202592756585458e-06,4.110447387580709e-06
50.42710079999961,0.0,0.0,0.0,-1.6133770587784478e-07,-1.9753419971144364e-06,2.901598778902132e-06
50.4792105000015,0.0,0.0,0.0,-3.3321519482469383e-07,2.4377505929162602e-06,1.1972988878365691e-05
50.53394390000176,0.0,0.0,0.0,-4.667555410857223e-07,8.637989828772577e-07,7.78621743096281e-06
50.57915549999598,0.0,0.0,0.0,6.30801856047324e-06,-5.313016074367293e-06,1.1031807867797927e-05
50.63159269999596,0.0,0.0,0.0,-6.379971462109057e-06,4.526678620008705e-06,1.1464473699386363e-05
50.68073960000038,0.0,0.0,0.0,3.7956278879161756e-07,1.1329561135002754e-06,1.1810592063868258e-05
50.73133539999981,0.0,0.0,0.0,5.575169796100849e-06,-5.613496748177387e-06,1.8814340140634096e-05
50.7823808999965,0.0,0.0,0.0,3.844464446413618e-06,-1.0955615890818014e-06,-4.141758684179274e-07
50.833246100002725,0.0,0.0,0.0,-9.16019124180457e-06,2.3233210922539427e-06,1.0037300313801812e-05
50.88132210000185,0.0,0.0,0.0,6.12251488742317e-06,-5.595037819444838e-06,1.2437212716675583e-05
50.92742849999922,0.0,0.0,0.0,-6.090919418309245e-06,7.356466805299993e-07,3.178599711859684e-06
50.97950029999629,0.0,0.0,0.0,8.848251898506231e-07,1.1013232807074268e-06,3.6819746602777083e-06
51.03338039999653,0.0,0.0,0.0,6.499941647907093e-06,-1.0935212783413292e-06,1.0054396326692238e-05
51.082763300000806,0.0,0.0,0.0,-2.763842744190766e-07,1.0702396666758618e-06,7.81911872832407e-06
51.132569800000056,0.0,0.0,0.0,-5.1386258951382974e-06,-3.982151559398444e-06,-1.393220860304498e-07
51.17635799999698,0.0,0.0,0.0,-1.4244947499312352e-06,7.830014695123319e-07,4.742244830577165e-06
51.22439830000076,0.0,0.0,0.0,8.56250874612831e-06,-3.3078351668619096e-06,9.77331239297325e-06
51.280832700002065,0.0,0.0,0.0,-7.960853422271869e-06,1.8537068823245433e-06,6.959208351892316e-07
51.32518749999872,0.0,0.0,0.0,6.197871188573231e-06,-5.433726138211132e-06,4.9043509896753605e-06
51.37630999999965,0.0,0.0,0.0,-6.492950054854994e-06,3.6874132892891744e-06,1.105362262126004e-05
51.42997199999809,0.0,0.0,0.0,8.904274146287744e-06,-3.3998541481224076e-06,1.6589650660402334e-05
51.4756675000026,0.0,0.0,0.0,-8.85059476344348e-06,8.53249966903997e-07,3.77028846523171e-06
51.52782019999722,0.0,0.0,0.0,7.323771396598905e-06,-2.092472346413437e-06,1.4338233160456214e-05
51.586542400000326,0.0,0.0,0.0,-6.0820971649490225e-06,1.1099006076420727e-06,1.1407705475106899e-05
51.63078249999671,0.0,0.0,0.0,-1.8222491224219624e-06,3.1826147922214696e-06,1.3913961523531142e-05
51.68001910000021,0.0,0.0,0.0,6.482409827736558e-06,-5.8695373511151354e-06,8.283531378720814e-06
51.73061199999938,0.0,0.0,0.0,-5.001382875764551e-06,4.189684667503582e-06,7.904899489875847e-06
51.77528999999777,0.0,0.0,0.0,1.7797983380997977e-07,-2.7343168962703074e-06,7.34959785781989e-06
51.825937699999486,0.0,0.0,0.0,6.419463986471639e-06,-3.1224893572620487e-06,1.6685694927186132e-05
51.87723299999925,0.0,0.0,0.0,-7.767799236390129e-06,2.689340723982182e-06,4.644718183999631e-06
51.92475600000034,0.0,0.0,0.0,7.072105030003121e-06,-6.4624467685727116e-06,6.12828753225062e-06
51.98154120000254,0.0,0.0,0.0,-6.840068685350716e-06,2.479091222169997e-06,1.067770762475276e-05
52.03322889999981,0.0,0.0,0.0,8.11594256537443e-06,2.8550144295283625e-06,5.801523245060802e-06
52.07675429999654,0.0,0.0,0.0,-7.359646540264113e-06,-4.0786445175300154e-06,1.6461385851462507e-06
52.13070829999924,0.0,0.0,0.0,5.508311752655856e-06,-3.914528800663585e-06,5.383631365558837e-06
52.17472529999941,0.0,0.0,0.0,-4.865378601094755e-06,-2.0527524786571543e-06,5.2906289545212145e-06
52.224881499998446,0.0,0.0,0.0,7.098894897928293e-06,4.4359541920308594e-08,1.2441630144142954e-05
52.273813300002075,0.0,0.0,0.0,1.1110771779933574e-06,3.3172519002998242e-06,1.097350414843151e-05
52.33034790000238,0.0,0.0,0.0,-7.950494192829153e-06,-4.642344491365498e-06,2.302574038170724e-06
52.382428199998685,0.0,0.0,0.0,5.252638409765964e-06,9.174682704738159e-07,1.3688035996176244e-05
52.432557799998904,0.0,0.0,0.0,2.2844601664890307e-06,-1.7934602873832944e-06,1.631231556520228e-05
52.48064589999558,0.0,0.0,0.0,-8.080668546669351e-06,5.8062297929252286e-06,1.450794874230504e-05
52.530469500001345,0.0,0.0,0.0,8.890742307461174e-06,-6.16240571780424e-06,1.5841252264472637e-05
52.577636499998334,0.0,0.0,0.0,-9.208891728636113e-06,4.814957486564877e-06,1.05847494168145e-05
52.630148099997314,0.0,0.0,0.0,3.925479092120939e-07,-3.971167844631728e-06,2.064207709508094e-05
52.67670720000024,0.0,0.0,0.0,-2.9289745294844656e-07,1.3573112445151454e-06,9.594676344430523e-06
52.731211500002246,0.0,0.0,0.0,8.65711861994218e-06,-5.5263899416949405e-06,1.339351624767133e-05
52.78117570000177,0.0,0.0,0.0,-8.45056886859823e-06,1.207010766719879e-06,1.416712623144358e-06
52.83429259999684,0.0,0.0,0.0,9.127714517831184e-07,6.467280218392787e-07,5.753595608613353e-06
52.88363360000221,0.0,0.0,0.0,4.386490332886814e-06,-2.1400645825477467e-06,1.6134166254468378e-05
52.93306989999837,0.0,0.0,0.0,7.230775168365768e-06,-6.266913028910452e-06,9.883459460020886e-06
52.98285780000151,0.0,0.0,0.0,-5.3969610348929625e-06,7.983542986397967e-06,-2.77228314156457e-06
53.02698489999602,0.0,0.0,0.0,-4.6795984118660996e-07,-6.7567716261945995e-06,6.080199180112861e-06
53.07768219999707,0.0,0.0,0.0,5.608290394328011e-06,4.329434432194325e-06,4.62429018569917e-06
53.13210930000059,0.0,0.0,0.0,-1.1384042630901259e-05,-3.1999438453154624e-06,8.369258193256276e-06
53.18032040000253,0.0,0.0,0.0,5.985440332219035e-06,6.706171054957758e-08,1.4723150153127299e-05
53.22989009999583,0.0,0.0,0.0,-6.408434889425471e-06,1.5926253578336962e-06,5.587740414857414e-06
53.284287599999516,0.0,0.0,0.0,7.400705594566812e-06,-3.3818609596664795e-06,-2.2860345229135305e-07
53.33017039999686,0.0,0.0,0.0,8.219781489840526e-06,-1.1865981071413493e-06,3.2778415071995796e-08
53.37544270000217,0.0,0.0,0.0,-8.352957749228518e-06,3.801304116028334e-06,1.625466543498238e-05
53.43200660000002,0.0,0.0,0.0,4.3457222601253605e-06,-3.5261196550477945e-06,4.612277618759992e-06
53.47632059999887,0.0,0.0,0.0,-1.153520880775763e-05,3.055821772684719e-06,2.836206433990739e-06
53.529568600002676,0.0,0.0,0.0,7.411138509545095e-06,-6.333717191582551e-06,2.969813968558862e-06
53.58169829999679,0.0,0.0,0.0,2.3724000286069035e-09,-3.4494133142720646e-06,3.9049786373207834e-06
53.63220690000162,0.0,0.0,0.0,-7.906678944492946e-07,3.1437879380238236e-06,3.151501957263407e-07
53.679426999995485,0.0,0.0,0.0,0.00015169134002911096,-0.0016439533274863177,0.11073421553862606
53.732234800001606,0.0,0.0,0.0,0.0005140091941862394,-0.0013599133442681343,0.2966247635479332
53.78217220000079,0.0,0.0,0.0,0.0010112485768454594,0.0009936693057039903,0.4828053757387992
53.83115019999968,0.0,0.0,0.0,0.0014982411435739726,0.0007743318346664259,0.6985654756680417
53.874816600000486,0.0,0.0,0.0,0.002173832932543392,0.000647721715657514,0.9402031838874253
53.9293508999981,0.0,0.0,0.0,0.0017374053430909294,0.0040214482860272,1.1254954898836984
53.98175479999918,0.0,0.0,0.0,0.0021897648163902075,-0.006555291678074283,1.1762283778964935
54.03431249999994,0.0,0.0,0.0,0.002425480079201707,0.0005544556071472254,1.1192894717213149
54.07977209999808,0.0,0.0,0.0,0.002495337072288928,-0.004888017382502649,1.0275318870361978
54.12899340000149,0.0,0.0,0.0,0.0013263161224357283,0.002739122672684743,0.9347307834157702
54.18646450000233,0.0,0.0,0.0,0.0017632096508795178,-0.0016538485098571332,0.852926597483614
54.230866899997636,0.0,0.0,0.0,0.0019408747324539191,-0.003562128916407042,0.7870335221467245
54.27714140000171,0.0,0.0,0.0,0.0017113059350270378,0.0004751819143157419,0.7240822492479727
54.326390599999286,0.0,0.0,0.0,0.0015494399877658675,0.00033399136054473074,0.6678947130051174
54.38318559999607,0.0,0.0,0.0,0.0018679471321395448,-0.00854624806807124,0.6595927488999915
54.434564399998635,0.0,0.0,0.0,0.001637131790695295,0.0028859302819326956,0.6492419897663987
54.48450269999739,0.0,0.0,0.0,0.0016047571028564701,0.0010843490828963851,0.6491304347650333
54.5290090999988,0.0,0.0,0.0,0.001543044608817625,0.002806284210154608,0.6637219551651268
54.58375900000101,0.0,0.0,0.0,0.0014105529060673984,0.003354734308319278,0.6867692626947288
54.63107930000115,0.0,0.0,0.0,0.001913670015397672,-0.004064969810393889,0.6987549075596899
54.677901800001564,0.0,0.0,0.0,0.002372954091837436,0.0013819758242104181,0.642122334549645
54.728528200001165,0.0,0.0,0.0,0.001275924250521333,0.0018517767258455612,0.49531025502172227
54.78571699999884,0.0,0.0,0.0,0.00016077599076407624,0.00451633941541128,0.32202802261110186
54.83367290000024,0.0,0.0,0.0,-0.0002132434900047362,0.0011045255684085686,0.16816559942458173
54.880403999995906,0.0,0.0,0.0,-0.00014518595449312507,0.009518538745582372,0.11991076583295608
54.92581849999988,0.0,0.0,0.0,0.00025327933333678425,0.0017001171560841878,0.20503467863207195
54.981074600000284,0.0,0.0,0.0,0.00028285894630784733,0.0004777143446597408,0.23653892261350787
55.036374199997226,0.0,0.0,0.0,0.0003120070605829897,0.0003885441698219197,0.22699473227306272
55.07491399999708,0.0,0.0,0.0,0.0004071869347373474,-0.0009695856202134586,0.20986656222288555
55.12584190000052,0.0,0.0,0.0,0.0003711299599120681,-0.004128522427216304,0.1943794297091484
55.17522669999744,0.0,0.0,0.0,0.00021314903251724735,0.0024620290447301177,0.18409000865178
55.232597299996996,0.0,0.0,0.0,0.00022301059479549334,0.0002024784254497709,0.1778679265904705
55.27534899999591,0.0,0.0,0.0,0.0001977247536381607,0.0015142239983199763,0.17082293729189263
55.32908049999969,0.0,0.0,0.0,0.00027430246075475323,-0.0039685466929955514,0.16233873545054125
55.37365019999561,0.0,0.0,0.0,0.0002719347307642607,0.0008305477007934719,0.15524447887972653
55.42561389999901,0.0,0.0,0.0,0.00026184344562183055,-0.0017379009703136898,0.14872372864000472
55.48508900000161,0.0,0.0,0.0,0.00017792127394554606,0.002731244314021601,0.14276832855794838
55.53179649999947,0.0,0.0,0.0,0.00022038314108863266,-0.0011202246807240123,0.1376164309234896
55.58254329999909,0.0,0.0,0.0,0.0001409504138150124,0.0016073715570440912,0.13279524609639518
55.63084649999655,0.0,0.0,0.0,0.00015724214665981318,0.000883933142949757,0.12821515470997902
55.67616799999814,0.0,0.0,0.0,0.00019348452160349705,-0.0013536866645404298,0.12763947928895275
55.72523799999908,0.0,0.0,0.0,1.3441379499352638e-05,0.0019395732562839084,0.13018224784405105
55.78282300000137,0.0,0.0,0.0,0.00023780723499240678,0.0008830276260167788,0.12703051330517626
55.82977540000138,0.0,0.0,0.0,0.0002924862646818573,-0.0033413349296296125,0.10643863815312059
55.88575249999849,0.0,0.0,0.0,3.439772402291e-05,0.002493641821138856,0.1077937908824935
55.93232100000023,0.0,0.0,0.0,9.086693090814885e-05,-0.00365592895933695,0.11551010272728549
55.98283509999601,0.0,0.0,0.0,0.0002175911664949874,-0.00021853961047667606,0.11833784344055749
56.02933800000028,0.0,0.0,0.0,0.00016914113451523615,-0.00020092422290986806,0.11917925365186868
56.08353039999929,0.0,0.0,0.0,0.00020523116879351524,0.001642114005644808,0.12158257844239885
56.125606900001,0.0,0.0,0.0,0.00018745100274544186,-0.0006208812245463911,0.12739025866820392
56.17616629999975,0.0,0.0,0.0,0.00022602942333551114,0.0019650785147950884,0.1348865168465505
56.23202299999684,0.0,0.0,0.0,0.0002848596101132338,0.0016977612386395858,0.14370690215636453
56.28380040000047,0.0,0.0,0.0,0.0003063161623727816,-0.0022744194610386584,0.16230710396795023
56.332881800000905,0.0,0.0,0.0,0.00033265351084174166,0.001099993848894831,0.1903852991152133
56.37665500000003,0.0,0.0,0.0,0.00039355979573810305,-0.0016279136746642675,0.23402411344763963
56.42447099999845,0.0,0.0,0.0,-7.710324447590578e-05,0.009133006577489437,0.2435453513253298
56.48488399999769,0.0,0.0,0.0,0.0001504868102974394,0.0006734537254391387,0.24740434516925328
56.52981549999822,0.0,0.0,0.0,0.0004484788378735731,0.0005474712263305927,0.2463865289970949
56.5810932999957,0.0,0.0,0.0,0.0007853755441812797,0.0005274541321747467,0.24750468279318594
56.62485359999846,0.0,0.0,0.0,-0.00019186122139216224,-0.00030800676562464234,0.23413810325653817
56.675371699995594,0.0,0.0,0.0,0.00018466514938608145,-0.0007408886199561998,0.2256670931436711
56.73200910000014,0.0,0.0,0.0,0.00025389829669657786,-0.0008034525117905698,0.21262852751191022
56.78131449999637,0.0,0.0,0.0,0.0005966972433900037,-0.0005790656516190323,0.19622475071128886
56.83277300000191,0.0,0.0,0.0,0.0010557465328888055,-0.0022597375155168666,0.15300750428848947
56.87810919999902,0.0,0.0,0.0,-0.0010923592441659286,-0.006453442160363941,0.034791610546221145
56.93126569999731,0.0,0.0,0.0,-0.00013803159171147162,0.0014382827954115935,0.003727511734381184
56.983220499998424,0.0,0.0,0.0,1.674422445686473e-05,0.0005422293313220402,0.0017439656052401684
57.03168300000107,0.0,0.0,0.0,3.6842262201777774e-06,-0.0008573147065060131,0.0008583307131226727
57.07477269999799,0.0,0.0,0.0,-6.614665182775039e-05,0.0015628631484443148,0.0003356297979804786
57.13290309999866,0.0,0.0,0.0,0.00011024031226313686,-0.0012907312859575173,0.00012193208775642737
57.1746284999972,0.0,0.0,0.0,-9.587292711789845e-05,0.0004245829066878464,3.5410234168706346e-06
57.22921150000184,0.0,0.0,0.0,1.632238811795782e-05,-0.00041850637497306016,5.1124550011225306e-05
57.28021769999759,0.0,0.0,0.0,5.460792947910713e-05,0.0006865929236577032,-4.155510236412693e-05
57.33251169999858,0.0,0.0,0.0,-4.661813257383098e-06,-0.0011812682473921192,7.44466112148363e-05
57.38122779999685,0.0,0.0,0.0,-7.220646376435357e-05,0.00042189465896468227,8.480967324424907e-05
57.425476600001275,0.0,0.0,0.0,9.213752924927933e-05,-0.0001973960040690131,7.121872840586786e-05
57.48009789999924,0.0,0.0,0.0,4.187912720741421e-06,0.0013903981705717101,5.878185750765576e-05
57.53188190000219,0.0,0.0,0.0,6.081846932303809e-05,-0.0008481172209101336,9.293841123351535e-05
57.582900000001246,0.0,0.0,0.0,-5.4431387148759294e-05,-0.00047826377684534807,8.83025239860956e-05
57.63191999999981,0.0,0.0,0.0,-8.280763867643019e-05,0.0012381035822683578,7.48981055633142e-05
57.68033199999627,0.0,0.0,0.0,1.591746824937061e-05,-0.000769608803283755,-2.967599154021217e-05
57.725105699995765,0.0,0.0,0.0,-5.7864326199099863e-05,0.0003161561128127847,-3.469455668171597e-05
57.77591440000106,0.0,0.0,0.0,9.890280502952866e-05,0.0005128001406011377,-0.00023131644878916674
57.83315919999586,0.0,0.0,0.0,-2.9132413798735207e-06,-0.00109963214615703,-1.9280650261182663e-05
57.874209900001006,0.0,0.0,0.0,-3.2860273355107546e-05,7.79005045943789e-05,-1.1676297950635326e-06
57.926553299999796,0.0,0.0,0.0,-3.47671056414117e-06,0.0002339885694572702,-0.00010453270264699951
57.97384439999587,0.0,0.0,0.0,-8.038569177031983e-06,-0.0009433256541203985,2.2329890487612775e-05
58.026300400000764,0.0,0.0,0.0,5.323311906398499e-05,0.00014474754128400807,-0.00015258192046646604
58.07421189999877,0.0,0.0,0.0,-4.043306482899613e-05,0.0001801472901458768,-0.00010749022823792601
58.12412449999829,0.0,0.0,0.0,-1.936022846410309e-05,0.0004793082941342247,-8.301911569540502e-05
58.175101499997254,0.0,0.0,0.0,-3.647388869706979e-05,-0.0006250821672415654,-0.00010104755654247779
58.23448900000221,0.0,0.0,0.0,2.2616031320848308e-05,0.00017362029428869238,-2.7569499684966598e-05
58.27719839999918,0.0,0.0,0.0,5.109008136789555e-05,0.0002575990887338232,-7.434693953690548e-05
58.331799200001115,0.0,0.0,0.0,2.3434283043250875e-05,-0.0006054262196263245,-0.0001615238484271127
58.383237199996074,0.0,0.0,0.0,-4.562103558252014e-05,-0.0003058371742306695,-0.00013035568251878056
58.429845300001034,0.0,0.0,0.0,-4.790927632435113e-05,0.0002877177802604357,-9.280100806429304e-05
58.475971499996376,0.0,0.0,0.0,3.779663024114637e-05,-0.001235716373966988,-0.00019382304099864895
58.533259899995755,0.0,0.0,0.0,0.00011152408075500052,0.0022318597306167976,-0.0005274307945854944
58.576183799996215,0.0,0.0,0.0,-0.0001338887125235872,-0.001656663224661732,-0.0003154761179216667
58.626693300000625,0.0,0.0,0.0,6.375436590786012e-05,0.0008148823372761204,-0.0002158618251502052
58.67422739999893,0.0,0.0,0.0,-2.7018239537141222e-05,-0.0013584849389197218,-0.00011421828220080161
58.732513000002655,0.0,0.0,0.0,3.64852291123257e-05,-0.0005467948822729143,-0.00014796849809465876
58.78511029999936,0.0,0.0,0.0,5.8804396228570545e-05,-0.0074940357948666695,-0.00032281034748957296
58.82694719999563,0.0,0.0,0.0,-2.847226235356406e-05,5.478246991479482e-05,-0.00035407706920805525
58.87713359999907,0.0,0.0,0.0,3.8405476393369884e-05,9.399080819924523e-05,1.5065756668674314e-05
58.92862590000004,0.0,0.0,0.0,-1.767803100653194e-05,0.0002049454230678892,-0.00017991784357556038
58.97453439999663,0.0,0.0,0.0,5.962860493503122e-07,-0.00011014829507959809,-5.9034220689362446e-05
59.03172790000099,0.0,0.0,0.0,2.4113770578827158e-05,0.0005547527284817806,5.1579201918492115e-05
59.08590639999602,0.0,0.0,0.0,-2.5003096138503687e-05,-0.0005571127152278724,0.000165236441668259
59.13184799999726,0.0,0.0,0.0,-7.630168927101421e-05,-6.421128888682856e-05,0.0001477872405215886
59.182224600001064,0.0,0.0,0.0,5.136498777159246e-05,-0.00013171011936593367,0.0002896957384138796
59.22894649999944,0.0,0.0,0.0,4.860799525251623e-05,0.00024876013052216046,0.00033756855382449094
59.28460079999786,0.0,0.0,0.0,-2.730910137019475e-05,-0.0005197977707935759,-8.824728070402888e-05
59.32514020000235,0.0,0.0,0.0,2.709663442213701e-05,0.0002804480566317688,3.8120760277215676e-05
59.382188399998995,0.0,0.0,0.0,4.062939839303754e-06,0.0003845270537837527,8.98162123170956e-05
59.42593530000158,0.0,0.0,0.0,-5.894286275876985e-05,-0.000498652205193528,0.00013381055381743684
59.48137929999939,0.0,0.0,0.0,-5.3334940120027705e-05,0.00031396027106708323,-6.237324332677254e-05
59.531059100001585,0.0,0.0,0.0,-1.589062737246092e-05,-0.00034637257386867286,-0.00010993872426005532
59.579730199999176,0.0,0.0,0.0,6.30575705741689e-05,-0.00011946752595345795,-7.490203016253086e-05
59.625337199999194,0.0,0.0,0.0,-3.6710292524305444e-05,0.0005080511855685446,0.00022704691077295202
59.68059849999554,0.0,0.0,0.0,-4.3499189171261905e-06,-6.244081828864773e-05,0.0003677376530089644
59.7339764999997,0.0,0.0,0.0,-1.0031890000208969e-05,-0.00020112750001213548,-6.310799819904842e-06
59.78084659999877,0.0,0.0,0.0,4.690938176455087e-05,7.371454790060431e-05,0.00047433254097618426
59.82975450000231,0.0,0.0,0.0,9.570540521877546e-06,-6.378075129246841e-05,-0.00035221139022650655
59.88192800000252,0.0,0.0,0.0,-5.0565476536663885e-06,-3.5206780913486614e-05,-0.00022697330323946728
59.92518810000183,0.0,0.0,0.0,-2.7508779948139345e-06,0.0004375034497094431,-0.00017610261579712383
59.98015299999679,0.0,0.0,0.0,1.0602544177473888e-05,-4.5429470339646214e-06,-4.251825780376741e-05
60.03142549999757,0.0,0.0,0.0,2.46891660669668e-05,-0.000518221555954889,-0.00017887297274321053
60.074186500001815,0.0,0.0,0.0,5.4516929042952e-06,-0.00023915277199216867,2.759456453976555e-05
60.13367589999689,0.0,0.0,0.0,5.706408346023003e-05,0.00045018219567233004,-4.116731572799879e-05
60.1817927000011,0.0,0.0,0.0,-6.059577833308192e-05,-0.0002158485937463381,-0.00011754679977378927
60.28790289999597,0.0,0.0,0.0,5.299525316434207e-05,5.527141504151926e-05,-0.00036689172000028514
60.309355600002164,0.0,0.0,0.0,-0.00011005581310983738,0.000301985458410841,-0.00015427046637766346
60.357874399996945,0.0,0.0,0.0,-3.669961830845158e-05,-0.00016951711009724547,-0.00020415565492964575
60.40946239999903,0.0,0.0,0.0,4.9793785527959454e-05,8.536875105829145e-05,-0.00018387176800175117
60.45607709999604,0.0,0.0,0.0,-6.0115786744524396e-05,-0.00025551465315614975,-0.00031019934358018523
60.50697109999601,0.0,0.0,0.0,0.00013958922900821186,2.960012457843722e-05,-5.788696086860165e-05
60.55643350000173,0.0,0.0,0.0,-4.600102165965869e-05,-0.00020765167364175278,7.656539969610482e-05
60.6076991000009,0.0,0.0,0.0,1.7726677303087624e-05,0.00046458991890723807,0.00026422880732871357
60.656806599996344,0.0,0.0,0.0,-3.878967324066482e-05,-0.00012207605465222422,-0.00011361241576033363
60.70888820000255,0.0,0.0,0.0,-5.734334935395556e-05,7.017640200135018e-05,-1.3569217806526053e-05
60.75596580000274,0.0,0.0,0.0,9.554874221773188e-05,-1.1216824067035436e-06,2.8266427107876173e-05
60.80834660000255,0.0,0.0,0.0,-5.720119266481687e-06,0.0001066823467305394,0.00026168272833186433
60.859821599995485,0.0,0.0,0.0,-4.681001477390599e-05,-0.0002040251810912186,0.00032626338377070654
60.90739010000107,0.0,0.0,0.0,-7.0603468733470456e-06,5.720026568520614e-05,0.00034459724660010815
60.95649389999744,0.0,0.0,0.0,-4.883456503612697e-05,9.78345859672893e-05,0.00038791342440523707
61.007789199997205,0.0,0.0,0.0,5.369819454346334e-06,0.00027177459049976233,0.00032868765302865457
61.0574209999977,0.0,0.0,0.0,0.00011365993430213027,-0.00037639579297841797,-6.559472394019075e-05
61.1065282999989,0.0,0.0,0.0,-1.7929436914853313e-05,-0.0003493213337884473,-3.158185126447384e-05
61.15714409999782,0.0,0.0,0.0,-4.087597575175242e-05,0.0008569759085172879,-7.576725501624343e-05
61.21358759999566,0.0,0.0,0.0,2.4859612949434766e-05,9.603886390115232e-07,4.993477931781825e-05
61.26318960000208,0.0,0.0,0.0,-1.0511637541758184e-05,-0.00015177909101083068,-0.0002840569615316257
61.30952149999939,0.0,0.0,0.0,-1.7539279113658424e-05,-4.9410952130506825e-05,-0.0002648740358466964
61.359286099999736,0.0,0.0,0.0,4.070961173506735e-05,0.0002599582908963037,-0.000296000825978913
61.40667150000081,0.0,0.0,0.0,-2.337078783883475e-05,0.00025977008171055454,-1.4484825913567335e-05
61.459854599997925,0.0,0.0,0.0,6.6285317488321376e-06,-0.0005998630111323862,1.3081835573999927e-05
61.50682879999658,0.0,0.0,0.0,-8.938100280035877e-05,-0.0002575979308678403,-6.869466858411966e-05
61.55722550000064,0.0,0.0,0.0,6.956187748207018e-05,0.00020112928136711866,-8.349586438171051e-05
