t,ax,ay,az,gx,gy,gz
0.598740400004317,0.0,0.0,0.0,-0.002411821841381574,-0.06318960780761253,0.0003396688722323699
0.6266613000043435,0.0,0.0,0.0,0.0009319942266373375,0.003659320687151988,1.8497851614715805e-05
0.6715717999977642,0.0,0.0,0.0,9.131814436195706e-05,0.00242479249905876,0.00018288568490954597
0.7201459999996587,0.0,0.0,0.0,-1.5513454182870406e-05,-0.00011712174349690935,0.00028791353851585804
0.7689689000035287,0.0,0.0,0.0,-2.3759054407640764e-05,-0.0005704969099568054,0.00040284279610374265
0.8213615999993635,0.0,0.0,0.0,4.264350732768815e-05,0.0002912818958217801,0.00038942410553096383
0.8708731000006082,0.0,0.0,0.0,-1.2891689765491176e-05,-0.00036507163780961693,0.0003357034626715332
0.9184901000044192,0.0,0.0,0.0,9.310507546079143e-06,0.00012964692344217768,-3.739144550284227e-05
0.9757182000030298,0.0,0.0,0.0,4.109601076455252e-05,0.0004368345690676554,0.00017707527961097127
1.0246125999983633,0.0,0.0,0.0,2.681642206681785e-05,0.0004291526281001909,0.0002398373092782521
1.0761268999995082,0.0,0.0,0.0,8.031658793177076e-06,0.0003299520401476435,0.00019271590335825798
1.1272737000035704,0.0,0.0,0.0,-2.3407561950024824e-05,-0.0011600930743184497,-0.00012579686403810193
1.1724756999974488,0.0,0.0,0.0,9.826830721829102e-06,-3.268946924085827e-05,-0.00023668036853558602
1.223066700003983,0.0,0.0,0.0,-4.409542342516524e-05,0.0004937915762510525,-0.00018570918593406306
1.274357800000871,0.0,0.0,0.0,3.310126747547877e-05,0.0002492127943570432,-9.442671150511136e-05
1.3244823999993969,0.0,0.0,0.0,-7.659378096304655e-05,-0.0010494041347176885,0.00010476108799200937
1.3728317999994033,0.0,0.0,0.0,-6.290977440570163e-06,-9.714837934979218e-05,0.0003049515454262038
1.4204810000010184,0.0,0.0,0.0,0.000110034311820252,0.001061925172625221,0.00045224234391131126
1.475452700004098,0.0,0.0,0.0,-3.345365660022286e-05,0.0005031683423671306,0.0002544969901531403
1.526949600003718,0.0,0.0,0.0,-1.0924696278148128e-05,-0.0004248634273655245,0.00048070625165743953
1.5748603000029107,0.0,0.0,0.0,-2.738023366923234e-05,-0.00038271060272521953,0.0004087277329943741
1.625246600000537,0.0,0.0,0.0,6.400727373743197e-05,0.0005380617792159052,0.00017755454728139703
1.671178399999917,0.0,0.0,0.0,-8.174009994464106e-05,-0.0007735843292382297,0.0002880908329609403
1.7222869000033825,0.0,0.0,0.0,5.699599587771667e-05,0.00021296671898103135,0.0003133744968282383
1.770319200004451,0.0,0.0,0.0,-3.121976101173358e-05,1.4057129364639793e-05,0.0003191964864812913
1.8186346000002231,0.0,0.0,0.0,4.351163687070522e-05,0.0003606792677742136,0.0002663888423971182
1.8689952999993693,0.0,0.0,0.0,-5.052485510147563e-06,-0.00011729938245887942,0.0003613825423769587
1.9208779000036884,0.0,0.0,0.0,-2.7605157582223262e-05,0.0007010239425337676,0.00017406503380046763
1.969790399998601,0.0,0.0,0.0,3.724989506853782e-07,-0.0001411400061146772,0.00012216305705100078
2.019452500004263,0.0,0.0,0.0,-2.5556858697463386e-05,-0.0008084262612380003,0.0002516268325829339
2.068573299999116,0.0,0.0,0.0,2.2068441015591518e-05,-0.00016829450499877954,0.0004045131278777786
2.12107339999784,0.0,0.0,0.0,2.9513501478978142e-05,-0.00014161848811593806,0.0001123741761270673
2.1724423999985447,0.0,0.0,0.0,-5.026452319958913e-06,0.00043316907048321254,0.0001500109793795213
2.220867600000929,0.0,0.0,0.0,-5.468322209950958e-05,0.0003146778117874049,0.0002686303627879315
2.2689871999973548,0.0,0.0,0.0,-7.324308247830284e-05,0.0006489833218720157,0.0002585167773785296
2.3198199000034947,0.0,0.0,0.0,0.00015110153681352202,-0.0009813051792906446,0.000309327789451899
2.3704400999995414,0.0,0.0,0.0,-5.3942245123398595e-05,-0.00025741645909085203,0.00016214204954149666
2.420090400002664,0.0,0.0,0.0,-5.266967275303307e-05,-0.00018701100318413132,0.00045269532371267323
2.469119400004274,0.0,0.0,0.0,6.031011548029382e-06,-0.00028108791426030517,0.000313063441974238
2.521037200000137,0.0,0.0,0.0,-5.361583152956917e-05,0.00023344863161310368,0.0002834497939331924
2.575224000000162,0.0,0.0,0.0,4.181838790148402e-05,-0.0002613334402492813,0.00023749630745838662
2.620102200002293,0.0,0.0,0.0,4.550795313910691e-05,0.0004215816042927576,0.00029919201285695415
2.6696945000003325,0.0,0.0,0.0,-4.75776124483259e-05,-0.0006130903076340771,0.00027259031300480894
2.7183808000045246,0.0,0.0,0.0,-8.014670851364908e-05,0.0003823932280120288,0.00013988643891835602
2.770590899999661,0.0,0.0,0.0,0.00010264637448850792,0.00011565428947249968,4.4648489334543016e-05
2.827430600002117,0.0,0.0,0.0,3.4272013162728225e-05,0.00017969995696886045,2.5302778257584594e-05
2.8775113000010606,0.0,0.0,0.0,-2.5463217998111828e-05,0.00018007887952648457,0.0005601036756670789
2.9247907000026316,0.0,0.0,0.0,-6.114120530382538e-05,0.00013314072067691692,0.00027697554128850214
2.970996900003229,0.0,0.0,0.0,8.739616921350972e-05,-3.813597653109993e-05,0.00017375120278997542
3.02748199999769,0.0,0.0,0.0,-5.033675224584672e-05,-0.0007138801313605013,9.76394251328077e-05
3.076251799997408,0.0,0.0,0.0,-5.2236660555843e-06,-0.0001730793638733558,5.8512313463712816e-05
3.1206334000016795,0.0,0.0,0.0,5.2805400975131374e-05,-0.00028602284692902364,0.00016114078362294902
3.174912200003746,0.0,0.0,0.0,-0.0001476404618915842,-0.00021091348227902294,0.00024895746397022764
3.2281863000025623,0.0,0.0,0.0,-1.742121007185156e-05,-0.00027353016102537274,0.00016591529354019637
3.273159600001236,0.0,0.0,0.0,6.416155268907658e-05,0.00036626989754330147,0.00017981017789731068
3.3177951000034227,0.0,0.0,0.0,8.555356102172743e-05,-0.00028325030550706157,0.00012904499649727243
3.3720042999993893,0.0,0.0,0.0,-5.802690417232432e-05,-0.00015584495762512414,0.00011857329240571998
3.430162199998449,0.0,0.0,0.0,2.7162027999809523e-06,0.0014658513761241587,0.0003216225472110329
3.474840900002164,0.0,0.0,0.0,-4.576631226213882e-05,-7.167010113022028e-05,0.00031126936904044727
3.5204577000040445,0.0,0.0,0.0,6.198309504874864e-05,-0.0006055108922650714,0.0002298487810521475
3.56946230000176,0.0,0.0,0.0,9.66809281827163e-06,-0.00032705309651524236,0.00041665316260557946
3.6243917000028887,0.0,0.0,0.0,2.4910486275863643e-06,-0.0003861947290448888,0.0003416431771741681
3.6729931000008946,0.0,0.0,0.0,4.66268537001042e-05,0.00035170212167607597,0.0003542902948471953
3.719475899997633,0.0,0.0,0.0,-8.620333705652969e-05,0.0009662860481802256,0.0003387190043573364
3.769492100000207,0.0,0.0,0.0,-5.443108330430782e-05,-0.0013257259032965988,0.00026403895886346977
3.8212930000008782,0.0,0.0,0.0,3.821752166318989e-05,0.00012977277603984507,0.00010178377578180064
3.871538400002464,0.0,0.0,0.0,3.872110874149954e-05,0.000203896624268425,-1.82020863853401e-05
3.9201123000020743,0.0,0.0,0.0,4.270670365315625e-05,-0.00025711606624049366,-5.6890609734356544e-05
3.9703945000001113,0.0,0.0,0.0,-6.388306846641426e-05,-0.00011222211930718106,-6.937761409814e-05
4.019455300003756,0.0,0.0,0.0,-2.9877030408478048e-05,2.9045428644930383e-05,7.725634424064651e-05
4.070897800003877,0.0,0.0,0.0,7.803460917832994e-05,0.0008955616063436892,0.00024419934457462573
4.118508600004134,0.0,0.0,0.0,-1.1040507127080902e-05,-0.00035426750979425457,0.00041769683276137327
4.1694986000002245,0.0,0.0,0.0,8.298765182546779e-07,-0.00057367544397965,-0.00013358793048194253
4.218487400001322,0.0,0.0,0.0,-3.6204538488700524e-05,-0.00022597707697579386,-9.96550521543182e-05
4.2703257000030135,0.0,0.0,0.0,-4.7579673477292055e-05,0.00010296950078378655,8.64604980133069e-05
4.3206511000025785,0.0,0.0,0.0,3.8368643447941036e-05,0.00024970171900731686,0.00017207138851333786
4.368831300002057,0.0,0.0,0.0,0.00010023313312078536,-0.0004853309695206444,0.00025524601628123107
4.418271599999571,0.0,0.0,0.0,-5.337635192268443e-05,-9.791846059524653e-05,0.0003318602888909396
4.469989600002009,0.0,0.0,0.0,3.333436297205606e-05,0.0004308009815441927,3.947812322909086e-05
4.52048630000354,0.0,0.0,0.0,-6.5388487515723015e-06,0.00010759168274791569,0.00023055584359786376
4.570022799998696,0.0,0.0,0.0,-7.046906508899401e-05,-0.00015477582771897301,2.080705602961347e-05
4.6177498000033665,0.0,0.0,0.0,1.6174717098599805e-05,-6.549562181040229e-05,7.846600124022541e-05
4.6693104000005405,0.0,0.0,0.0,8.670577880744349e-06,-0.0003233126012915916,0.00015960348521966607
4.727214899998216,0.0,0.0,0.0,-6.721008200969685e-05,0.00027468787235147455,0.00012842451804884197
4.768959699998959,0.0,0.0,0.0,6.287906844652904e-05,-8.299065823388979e-05,-3.5628642092527895e-05
4.819370800003526,0.0,0.0,0.0,-3.956109844198766e-05,-6.252948997784158e-05,0.00011542737186673217
4.870685599998978,0.0,0.0,0.0,-2.4226479991356147e-06,-5.799707317356418e-05,-0.00022646696278299207
4.919933900004253,0.0,0.0,0.0,4.208920560721583e-06,0.00030244415116125514,-0.000477219707717027
4.967599499999778,0.0,0.0,0.0,7.623196212892819e-05,-0.0008657292008943519,-0.00021729825218689213
5.020063199997821,0.0,0.0,0.0,4.164395437375203e-05,0.0005940596981414283,-0.000331638021598819
5.069380499997351,0.0,0.0,0.0,-0.00011368432789195159,0.00012433639377621038,-0.0001930615265647151
5.128788900001382,0.0,0.0,0.0,-1.9408465073512688e-05,7.1638924473897e-05,-0.00011643548212143185
5.179763500003901,0.0,0.0,0.0,8.096174216003589e-05,0.0003973726211133219,0.00016675534002748657
5.226181600002747,0.0,0.0,0.0,-9.327677747280489e-06,-0.0006725082371207042,0.00033891894852815225
5.271228500001598,0.0,0.0,0.0,-6.959192939771132e-05,0.0007057478815643562,0.0002294839655814847
5.322123800004192,0.0,0.0,0.0,2.9535610923562817e-05,-0.0007594928644708373,0.0003634860304175045
5.374017499998445,0.0,0.0,0.0,-1.1257248224966637e-05,0.0005677590717175134,0.0003514181390564831
5.419365399997332,0.0,0.0,0.0,4.913620784665186e-05,3.985701371179966e-05,0.0003485976450054494
5.471478300001763,0.0,0.0,0.0,-5.398148812439153e-05,-0.000565120352218093,0.00034638836150760477
5.524633100001665,0.0,0.0,0.0,-2.0538259206617527e-06,9.082944439817349e-05,0.0003042114274243422
5.5755724999980885,0.0,0.0,0.0,-2.4041384036474722e-05,-0.00012249685736571067,0.00018349578840653433
5.622626199998194,0.0,0.0,0.0,7.355875998370958e-06,2.9877417662505975e-05,0.0002279893280870902
5.668668600003002,0.0,0.0,0.0,3.993167707737164e-05,-0.00022660057788194426,0.00025234864963261946
5.728619599998638,0.0,0.0,0.0,-5.562466393681538e-05,0.0001210750964810228,0.00019009329203132586
5.772712600002706,0.0,0.0,0.0,7.475785328634398e-05,0.00029683615647657543,0.00028821545503100753
5.822086699998181,0.0,0.0,0.0,-4.453230705965138e-05,-0.0005786122428703159,0.00030021472989886523
5.8740589000008185,0.0,0.0,0.0,2.5979023469514943e-05,1.4444686977417883e-05,0.000234744228319155
5.9218164999983856,0.0,0.0,0.0,3.0099023738226097e-05,0.0005696478619053354,0.00030671710310094567
5.991989300004207,0.0,0.0,0.0,-9.043844103498077e-05,-0.00044520049131802476,0.0001053794118940257
6.020450500000152,0.0,0.0,0.0,-1.927946452821516e-06,-0.00017677690384473827,8.608724219119968e-05
6.06838869999774,0.0,0.0,0.0,3.0464714557149167e-05,0.0010507397657595128,0.00014899115238563017
6.117716100001417,0.0,0.0,0.0,-3.5838646667194095e-05,-0.0009861182054256201,-9.557013340864461e-05
6.169794499997806,0.0,0.0,0.0,8.099327716964879e-05,-9.68405056526772e-05,-0.00010165132794992228
6.219265300002007,0.0,0.0,0.0,-8.69571096353928e-05,0.0005630893373724241,1.944172403721396e-05
6.266156400000909,0.0,0.0,0.0,0.00011764180008202195,-0.0005560931647375092,-0.0001672806799959632
6.318523699999787,0.0,0.0,0.0,-5.604582876637134e-06,0.0006875374989786304,-0.00017437049928486746
6.367234900004405,0.0,0.0,0.0,-3.507695833074582e-05,0.0003834682582272701,-5.287772722167199e-05
6.418346200000087,0.0,0.0,0.0,7.749161906778202e-05,-0.0004220391170434741,-5.254803898265123e-08
6.466741800002637,0.0,0.0,0.0,-3.6120082766088206e-05,-0.0002785427536361688,-1.9031273855213495e-05
6.517088100001274,0.0,0.0,0.0,6.273639422373007e-05,-0.00018420732452073324,-0.00022858780204555184
6.567978099999891,0.0,0.0,0.0,-7.097759563485177e-05,0.0006593607536656645,-1.8645836604380294e-05
6.618892999998934,0.0,0.0,0.0,-2.4828692432659953e-05,0.00025952106119128936,0.0006140020011484719
6.6685770000040065,0.0,0.0,0.0,1.410826128282135e-05,-0.000415435601043561,0.000524382680695116
6.723980000002484,0.0,0.0,0.0,1.2380749298660091e-05,-0.0004998774983672966,0.00043876645380974005
6.772320399999444,0.0,0.0,0.0,2.5877987442112543e-05,0.0001797933731658534,0.00021097179478061866
6.819610400001693,0.0,0.0,0.0,-4.1828504678454246e-05,2.819480715445497e-05,0.00025291133444670983
6.8771514000036404,0.0,0.0,0.0,6.002913130864622e-06,0.00011597726597692098,0.0002976447808759416
6.920390500003123,0.0,0.0,0.0,4.672688557519706e-05,-0.00017053879902422176,-1.5081313279230641e-05
6.97434179999982,0.0,0.0,0.0,-2.2581781490464432e-05,0.00019104422271732735,-7.437950245439848e-05
7.020556900002703,0.0,0.0,0.0,-7.95546219943861e-05,-0.00020318460556755983,0.00022719016384316646
7.079765900001803,0.0,0.0,0.0,5.4196911885405206e-05,-0.00021179009863511115,-1.7281953703963376e-05
7.1277126999993925,0.0,0.0,0.0,-4.447258883891695e-05,-0.00013224200983096067,2.203235905525673e-05
7.17435960000148,0.0,0.0,0.0,5.2403686945423376e-05,7.386639405534909e-05,-0.00014697320514865016
7.227483599999687,0.0,0.0,0.0,4.064060064428501e-05,0.0002326420899044013,-0.0002575124016775658
7.278671100000793,0.0,0.0,0.0,-8.508139539993642e-06,-5.037152808646548e-05,-7.618314266913928e-05
7.325645600001735,0.0,0.0,0.0,1.3129277168702178e-05,-0.00015971063993028796,-0.00016444806890087983
7.370084300004237,0.0,0.0,0.0,-8.441040636571011e-05,3.393752184267046e-05,-8.656603586690718e-05
7.42344569999841,0.0,0.0,0.0,2.761212361861762e-05,0.00017599721296574964,-0.00018581472455345504
7.470300599998154,0.0,0.0,0.0,-2.269486911894465e-05,-0.00017550467022220135,-0.0003837276887709982
7.519506000004185,0.0,0.0,0.0,-2.9773756938156053e-05,-0.0001625036933233036,-0.00033568624500758147
7.568905100000848,0.0,0.0,0.0,6.432375265305575e-05,8.256247020933733e-05,-0.0002494575967734792
7.618707300003734,0.0,0.0,0.0,-2.650931990001761e-05,0.00030517002286471295,-0.0002987183004970811
7.6686257000037585,0.0,0.0,0.0,-1.1373931764389171e-06,-0.0002440031369928153,-0.0003951591149155517
7.719806300003256,0.0,0.0,0.0,2.391813365524856e-05,-0.0002671940998066225,-0.0003267792144149922
7.76976580000337,0.0,0.0,0.0,6.448923111689747e-05,0.00027281492542592396,-0.000287971111658112
7.8258072000026,0.0,0.0,0.0,-5.475174427020113e-05,6.9047050113536945e-06,-0.0002712269712665167
7.878572900001018,0.0,0.0,0.0,-2.4444073337026622e-05,5.7166541290328506e-05,-0.0003359596706815708
7.9296647000010125,0.0,0.0,0.0,4.7974564368866546e-05,-0.00018807869200707306,0.00011574700503315136
7.9742306000043754,0.0,0.0,0.0,-1.3432036360735982e-05,0.0006428310106988419,0.0002767157542284663
8.026625099999364,0.0,0.0,0.0,-1.854567265156848e-05,-0.0004265689324970776,0.00024278375721190328
8.074813799998083,0.0,0.0,0.0,3.055834255703168e-05,0.0003335380658972632,0.0003241641743689756
8.12547440000344,0.0,0.0,0.0,-3.269509600520529e-05,0.0005254469874952828,0.00030275234461613873
8.1809745999999,0.0,0.0,0.0,4.505534875795989e-05,5.893555530956322e-05,0.0003324315737537867
8.231485000003886,0.0,0.0,0.0,-4.559480867939816e-05,-0.000780384023170552,0.0004178876047840444
8.275633800003561,0.0,0.0,0.0,8.374366323396407e-05,0.00036873703688538706,0.0002983961989371815
8.319561000003887,0.0,0.0,0.0,-2.156604844470638e-05,-0.00030038114661185054,0.00034596858397169185
8.37842819999787,0.0,0.0,0.0,-1.9281292499540068e-06,-0.00020170870806903793,0.0003354136552639642
8.429010100000596,0.0,0.0,0.0,-3.9488457629298035e-05,0.0002874836272504749,3.0504223668583053e-05
8.47199769999861,0.0,0.0,0.0,-2.881426843392514e-05,7.372406068508264e-05,-6.232182167893771e-05
8.519015899997612,0.0,0.0,0.0,0.00012391463931915066,8.21763940393198e-05,-6.885292892381172e-05
8.574815100000706,0.0,0.0,0.0,-0.0001312000795606101,-0.00012460003306657567,-7.183828509942696e-05
8.626256800002011,0.0,0.0,0.0,3.108054701590523e-05,0.00011812373362641201,-1.1055114229128448e-06
8.676944200000435,0.0,0.0,0.0,-3.98289287838739e-05,-0.00033631705557000095,-7.793423390223595e-05
8.725765000002866,0.0,0.0,0.0,9.290205507763111e-05,9.888643936429924e-05,-6.539465244097876e-05
8.773769600004016,0.0,0.0,0.0,-6.524416613787471e-05,-0.00029070501535526094,-0.00011223482883555891
8.818765600000916,0.0,0.0,0.0,9.46182697330556e-05,6.424325359799251e-05,-0.00010229381040176337
8.877823000002536,0.0,0.0,0.0,-4.8464633737797526e-05,0.00023920610646051727,-0.0001765560464565415
8.925004700002319,0.0,0.0,0.0,-8.821942188812367e-05,-2.885257730690182e-05,-0.00033069584141137795
8.975727600001846,0.0,0.0,0.0,6.038165572870367e-05,-0.00012338548545220987,-0.00028354720954686075
9.023869099997682,0.0,0.0,0.0,-5.697902684535168e-05,0.00023547266325143785,-0.0002955027909260336
9.07616969999799,0.0,0.0,0.0,2.2501955542183678e-05,-0.0001473540057086683,0.00029068759794322383
9.12665630000265,0.0,0.0,0.0,-4.7388635063208375e-05,0.0001455818300118359,3.475188604756435e-05
9.175863900003606,0.0,0.0,0.0,6.133212569405379e-05,0.00015097098599621574,0.00010433178185760825
9.227681299998949,0.0,0.0,0.0,-2.835031809045634e-05,-0.00010083958063170049,-0.0002063630711545041
9.268549599997641,0.0,0.0,0.0,4.206981479092358e-05,-0.00034382766352060516,-0.0002738629407312022
9.326376299999538,0.0,0.0,0.0,-5.795931089072776e-05,-0.0002818894455414045,-0.00037041953128203885
9.377243900002213,0.0,0.0,0.0,0.00012598599775297603,6.431441133150619e-05,-0.0002011326224686709
9.427283800003352,0.0,0.0,0.0,-0.00010838285063409167,0.0002497593986610998,-0.00023361855701256042
9.473515300000145,0.0,0.0,0.0,-5.795802638732847e-05,9.015732646316939e-05,-0.0002553126740936023
9.525263900002756,0.0,0.0,0.0,1.559225842831574e-05,0.00026502388128467916,-3.442888634760991e-05
9.573169100003724,0.0,0.0,0.0,2.1979590031514425e-05,-0.00012873595350660456,-2.5292572827677244e-05
9.628674799998407,0.0,0.0,0.0,5.674291746522382e-05,-0.0002066025253427538,-0.00011398774746258425
9.669779399999243,0.0,0.0,0.0,-4.676408720346778e-05,1.231281660366181e-05,-0.00018475969277312928
9.72457569999824,0.0,0.0,0.0,-7.179972974985993e-05,0.0005946252045576307,-0.00016190887076845246
9.774870499997633,0.0,0.0,0.0,7.355874308023283e-05,0.00037952975201838526,-0.00014290461451479486
9.828190699998231,0.0,0.0,0.0,-1.2216638766932077e-05,-5.794348960231687e-05,-0.0002379996985462335
9.877833899998222,0.0,0.0,0.0,-1.3325134925824957e-05,-0.0005508637880302622,-0.0002640030356393935
9.928684300000896,0.0,0.0,0.0,-6.681696634542855e-05,0.0006104318648984298,-0.0002508620260796317
9.97878800000035,0.0,0.0,0.0,6.11836155397942e-05,0.00012865780217763753,-0.00019358895430014692
10.027604599999904,0.0,0.0,0.0,-3.6472302557624658e-06,-0.00046407978460782603,0.00012059043875175439
10.081558600002609,0.0,0.0,0.0,-2.5672350651556064e-05,-0.0002523328452105364,8.252170173963043e-05
10.127738900002441,0.0,0.0,0.0,2.1065156245414436e-05,2.259482954398123e-05,-9.602533583187567e-05
10.17551100000128,0.0,0.0,0.0,6.864858080276195e-05,-0.000540335016680239,-0.0003305909927917636
10.227888900000835,0.0,0.0,0.0,-5.5071910271980204e-05,0.00038126239686610524,-0.00018539500260038113
10.274627300001157,0.0,0.0,0.0,-1.3737613034863627e-06,0.00015176621961132482,-8.769827623923167e-05
10.327338100003544,0.0,0.0,0.0,-4.578857412797005e-05,-0.00011294219220463718,-0.00014452009757110685
10.377107200001774,0.0,0.0,0.0,0.00016660191596500488,0.0005910477302326256,-0.00019861620974896577
10.427427299997362,0.0,0.0,0.0,-9.076952953043058e-05,-0.00011506626231735938,-0.00011042148480240974
10.478882299998077,0.0,0.0,0.0,2.1667226617365994e-05,-0.00021045555481798015,1.640059949726128e-06
10.524348899998586,0.0,0.0,0.0,6.723606071279034e-05,0.00014406983643435898,-5.290737816546361e-06
10.571974899998168,0.0,0.0,0.0,-9.300642488994924e-05,0.00030624995266381684,-2.4362416504000317e-05
10.627138500000001,0.0,0.0,0.0,-3.3636144753169515e-05,0.0002440436398371397,-4.2675485809038126e-05
10.671797700000752,0.0,0.0,0.0,0.00013902073210083458,-0.0002302501508824461,-0.0003332560617837684
10.725180100002035,0.0,0.0,0.0,-8.093325431236757e-05,-0.00021939844078115928,-0.00021191819151755622
10.772092799998063,0.0,0.0,0.0,-6.513201889953244e-05,-0.0005247105291932547,-7.707704952543427e-05
10.826697900003637,0.0,0.0,0.0,6.904092925738753e-05,0.0001184676085649409,0.00030898181950092133
10.878961599999457,0.0,0.0,0.0,-2.3665337293207116e-06,-0.0003796328742830275,0.0004761286576891936
10.921871600003215,0.0,0.0,0.0,-2.0901387134580468e-05,0.0005668994558222219,-9.995706796136405e-05
10.97589539999899,0.0,0.0,0.0,9.64929498832986e-05,-0.00045261754356693874,-0.00024297947203031657
11.027190599997994,0.0,0.0,0.0,-0.00013377012599748725,0.0007351693862277214,-0.0002842797584215379
11.074101500002143,0.0,0.0,0.0,1.5831872118318455e-05,-5.4605911776514624e-05,-2.3912542570466454e-05
11.128928400001314,0.0,0.0,0.0,-3.9069255337741915e-06,-0.0005650453118131696,-0.000501366349724334
11.179578200004471,0.0,0.0,0.0,9.69771264884495e-06,-0.00022341404973733495,-0.00018472994800948663
11.23008739999932,0.0,0.0,0.0,-1.0293821818019806e-05,-1.6656995943608323e-05,-0.00019617512960759154
11.275725500003318,0.0,0.0,0.0,0.00010804307036742361,0.00034048289090932133,-0.0004882212627912055
11.33131339999818,0.0,0.0,0.0,-3.1014779792537974e-05,0.00010604785089785479,6.414157330809112e-06
11.378682700000354,0.0,0.0,0.0,-0.00012544191860895033,0.0010003236985937922,2.71020321539873e-05
11.41953640000429,0.0,0.0,0.0,9.325733908644418e-05,-0.0007638825939373478,-1.795486415949688e-05
11.478740099999413,0.0,0.0,0.0,8.140685980584588e-06,-0.0005923109026361173,-0.00012799887286513102
11.527670800001943,0.0,0.0,0.0,8.774551220765489e-06,0.0008317639611134302,-7.927616785056581e-05
11.580430399997567,0.0,0.0,0.0,4.669625267888412e-05,0.00034917653684426146,0.00015368162385473902
11.62830109999777,0.0,0.0,0.0,6.198147122565983e-05,-0.0004765773544928995,9.778872885549064e-05
11.676189899997553,0.0,0.0,0.0,-8.27444207298693e-05,-0.00031823574629056574,5.558781863226326e-06
11.722909600001003,0.0,0.0,0.0,-4.825455953976932e-05,-0.0002559521696536374,6.462016164914816e-05
11.779610099998536,0.0,0.0,0.0,-5.8076039181216315e-06,-0.00011610187139052653,0.00016520106595134263
11.828127000000677,0.0,0.0,0.0,7.267790817843347e-05,0.00033734460204375366,9.165246656706112e-05
11.876982300003874,0.0,0.0,0.0,-0.0005712689544289976,-0.02057059269634904,-7.35305938706868e-05
11.92180019999796,0.0,0.0,0.0,0.000218134863623246,0.0004824188798607632,-0.01378866400354173
11.97370100000262,0.0,0.0,0.0,1.770009165333848e-05,0.01351692635614091,-0.01916931289135595
12.022590699998545,0.0,0.0,0.0,1.8964846013101585e-05,-0.0035030380574125387,-0.008190895965147625
12.069448100002774,0.0,0.0,0.0,-0.00027353322142646057,0.007158613765178651,0.026385435293286002
12.121678100003919,0.0,0.0,0.0,0.0004605392819814827,0.0016725315458294998,0.08138244982300452
12.170205900001747,0.0,0.0,0.0,0.0008160888254423467,0.00833872436753291,0.22167167606354857
12.22001380000438,0.0,0.0,0.0,0.0008317367985244571,0.008010639713939447,0.4033798686757937
12.274625500002003,0.0,0.0,0.0,0.0008770902542857891,-0.0008443390263139358,0.42664741918604165
12.327741900000547,0.0,0.0,0.0,0.0011174964580481313,0.0015577080171296095,0.4407791148013779
12.372896499997296,0.0,0.0,0.0,0.0016000670509486404,0.0194883944153897,0.45789445833395037
12.4241927999974,0.0,0.0,0.0,-8.362546867758567e-06,0.0028271828192065794,0.45763731408007763
12.47258950000105,0.0,0.0,0.0,-0.0004846132314048485,0.0009950182068075024,0.4586259917459352
12.519682700003614,0.0,0.0,0.0,0.0007954164210497729,-0.00625827752604378,0.4204652323597227
12.57197879999876,0.0,0.0,0.0,0.0005280519585847644,-0.0036509224694152623,0.30379812790971106
12.624322700001358,0.0,0.0,0.0,0.000509668280729231,7.374725538512856e-05,0.23283647535894747
12.66911059999984,0.0,0.0,0.0,0.00012199293454408029,0.00025214103671657466,0.11049853328276016
12.719507399997383,0.0,0.0,0.0,-4.577130777153596e-05,-0.00027268139769500755,-0.04306069247193332
12.771490500002983,0.0,0.0,0.0,-0.0003176904348173202,-4.122138940290278e-05,-0.21932481183293678
12.821716200000083,0.0,0.0,0.0,-0.0005921089206429997,0.000738253153336537,-0.4125025678708355
12.87166889999935,0.0,0.0,0.0,-0.0005968505863773933,-0.000551153484256141,-0.6142022179599086
12.920846699998947,0.0,0.0,0.0,-0.001528373088635003,-0.008636038543277453,-0.7482048668098563
12.972231699997792,0.0,0.0,0.0,-0.0014894178003364233,0.00254188277356588,-0.7458500455605845
13.020783400002983,0.0,0.0,0.0,-0.0010896335571448023,-0.002253347728652011,-0.6967097990388127
13.072526700001617,0.0,0.0,0.0,-0.0013338097036782808,0.001276580772204889,-0.6463162958527049
13.12116270000115,0.0,0.0,0.0,-0.0014835594520677218,-0.008169461805123842,-0.592998871472366
13.17130719999841,0.0,0.0,0.0,-0.0007717587983107554,-0.0011599060070259792,-0.5466566784910031
13.222130499998457,0.0,0.0,0.0,-0.0018278253999636453,0.0031185414262038936,-0.6455443264877727
13.271877300001506,0.0,0.0,0.0,-0.0010649360603421003,0.0025807412733039672,-0.8186829500563603
13.321346800003084,0.0,0.0,0.0,-0.002422854100751537,0.006606898482637161,-1.0303045916994797
13.374275200003467,0.0,0.0,0.0,-0.002436741596318674,-0.0009401087772039488,-1.2380441222801046
13.420624799997313,0.0,0.0,0.0,-0.002904148924957608,-0.001597603895078971,-1.4128998486581743
13.471753300000273,0.0,0.0,0.0,-0.0030225011926307186,0.0005584478665101047,-1.536682315681238
13.521396000003733,0.0,0.0,0.0,-0.00254922507822244,0.0025308206567981346,-1.4869667195694531
13.570842599998286,0.0,0.0,0.0,-0.001991636571364177,0.004077803141057985,-1.2994540838004307
13.62184200000047,0.0,0.0,0.0,-0.0017350620409444198,-0.0007285603254734102,-1.091562516021297
13.671364399997401,0.0,0.0,0.0,-0.0014473608839248192,-0.0017083073144584147,-0.8740895409337657
13.722351600001275,0.0,0.0,0.0,-0.0008880731395124998,0.002297044696665473,-0.6627048810588534
13.770944800002326,0.0,0.0,0.0,-0.0007410799466975017,-0.004936486606528233,-0.4430714430053917
13.819966900002328,0.0,0.0,0.0,-0.0006555767796457842,0.0016608187550892937,-0.22422219394760445
13.870456199998443,0.0,0.0,0.0,0.0004863097086846217,-0.0017210454156016434,-0.008392051406297386
13.921330400000443,0.0,0.0,0.0,0.0005613649566907005,0.005063376755317433,0.20873894870029594
13.971467499999562,0.0,0.0,0.0,0.0008329960021002732,0.0027421336847738417,0.4342445389010823
14.020421000001079,0.0,0.0,0.0,0.0009244843897926847,-0.002366214526930219,0.5535386008357255
14.071055000000342,0.0,0.0,0.0,0.0008692175148582462,0.0009518286162444088,0.5310302334813113
14.120773399998143,0.0,0.0,0.0,0.0008150060435815601,-0.0007100498932857118,0.5008347453311414
14.17144840000401,0.0,0.0,0.0,0.0005939962241930577,-0.0010211245438740079,0.46411234077188956
14.2190161000035,0.0,0.0,0.0,0.0005572230326138924,0.004682015304010549,0.4418432142008017
14.273357500002021,0.0,0.0,0.0,0.0005736641969991259,-2.7125623569563984e-05,0.42627858433330146
14.331224599998677,0.0,0.0,0.0,0.0006676593088704606,-0.004600778375109629,0.4052458402697623
14.379523100004008,0.0,0.0,0.0,0.0006682917100208362,-0.0011578453259600708,0.38694124912426686
14.423403200002213,0.0,0.0,0.0,0.0004916584652090701,0.0043864570141845,0.3681065663860176
14.474284900003113,0.0,0.0,0.0,0.0005091389500690509,-0.002571244621561699,0.35329199837335146
14.520789399997739,0.0,0.0,0.0,0.0005022364777753275,0.0034238340022982048,0.340787318104116
14.58060800000385,0.0,0.0,0.0,0.0005498710834966969,-0.00357606724460616,0.3288333423526626
14.623614000003727,0.0,0.0,0.0,0.00037469780717107565,0.0033069798245964166,0.3170229017427265
14.67152960000385,0.0,0.0,0.0,0.0005821706490587626,-0.003463242437207188,0.30648274001069
14.723457400003099,0.0,0.0,0.0,0.00039959347420905815,0.0023661746061837624,0.2983475395126697
14.778486399998656,0.0,0.0,0.0,0.0005342419687630224,-0.0031012778396862896,0.292081753434129
14.82597209999949,0.0,0.0,0.0,0.0002926776711238402,0.0036860987819677354,0.28495777184424764
14.87939650000044,0.0,0.0,0.0,0.0004734522203567309,-0.0021045681574451,0.28152861948288427
14.926440700000967,0.0,0.0,0.0,0.000582276742577901,-0.00012214184891432686,0.27925816417993915
14.97437699999864,0.0,0.0,0.0,0.0003876612307849948,0.001120784706252275,0.2813393986043244
15.024295299997902,0.0,0.0,0.0,0.00033825456614624167,0.0010937120703262385,0.2815056623012758
15.072814300001482,0.0,0.0,0.0,0.00043095390097702246,-0.0033623162371068382,0.285456858751159
15.126307200000156,0.0,0.0,0.0,0.0003936265807082182,0.0024081044747692112,0.29285896062203765
15.176836400001775,0.0,0.0,0.0,0.0003319477497897319,0.0010427981629184398,0.3031160384372116
15.22279300000082,0.0,0.0,0.0,0.0005713971667771474,-0.00017275382656554503,0.3186194000469303
15.279268199999933,0.0,0.0,0.0,0.000620750935641144,-0.0032359210787043713,0.34473143165067144
15.328298300002643,0.0,0.0,0.0,0.0005366170861293774,0.002260340427920746,0.3789980333572996
15.374132500000997,0.0,0.0,0.0,0.0007149924375114021,0.0020248655465524533,0.4381598487867221
15.431641200004378,0.0,0.0,0.0,0.0009601262510126571,-0.004323997623679778,0.5267611653936336
15.476925100003427,0.0,0.0,0.0,0.0005452765134006522,0.009964389367162003,0.5481388079147482
15.525623900000937,0.0,0.0,0.0,0.0004223961457322083,0.001941511998992868,0.5549646556887544
15.57878950000304,0.0,0.0,0.0,0.00045222059667549865,-0.0006765182620847539,0.547708850859205
15.627949499998067,0.0,0.0,0.0,0.0004737892769851316,3.052071566254541e-05,0.5283301043640085
15.673059300002933,0.0,0.0,0.0,0.0003674245339902681,0.001027116327611629,0.5009146281339609
15.729170400001749,0.0,0.0,0.0,0.0003022720672083752,-0.001136069482291348,0.4667914441201159
15.77418469999975,0.0,0.0,0.0,0.0002989064124318212,-0.0009799165467958089,0.42009179367297744
15.822312800002692,0.0,0.0,0.0,0.0014068508589127453,-0.0016107980370580089,0.3880206553560109
15.875566100003198,0.0,0.0,0.0,-0.0003328005616036419,-0.006984638185437456,0.3087337235518945
15.924051800000598,0.0,0.0,0.0,0.00021202958535568195,-0.003820153725864867,0.1356120682114895
15.97733739999967,0.0,0.0,0.0,0.00014022407576564356,-0.004334962848320684,0.010360170924570622
16.029093800003466,0.0,0.0,0.0,5.175793464939072e-05,-0.0010880506458572903,0.0015619974037840668
16.078026499999396,0.0,0.0,0.0,-6.252296762926435e-05,0.0002904377541476452,0.0011266893527960631
16.124726699999883,0.0,0.0,0.0,2.9775459494240168e-05,-0.0001682411831416065,0.0005968556833296844
16.17820510000456,0.0,0.0,0.0,3.515437524257483e-05,-0.00019561519810207007,0.00029875620076168853
16.226728800000274,0.0,0.0,0.0,-5.603310418851434e-05,0.00036828304854386333,0.000130599761638937
16.280855999997584,0.0,0.0,0.0,4.800812301921547e-06,-0.0004205642465808288,8.293374100416805e-05
16.329708099998243,0.0,0.0,0.0,-1.895995673501813e-05,-0.0004651658650668621,-5.013714661615142e-05
16.37586359999841,0.0,0.0,0.0,-4.1631495751172395e-05,3.119256876799675e-06,7.910652224632237e-05
16.42395779999788,0.0,0.0,0.0,-3.2611170373294984e-05,-4.2063516293269225e-05,3.3540757731077686e-05
16.475886599997466,0.0,0.0,0.0,4.083650174240405e-05,0.0004219523756970782,0.00010139236579298738
16.53343780000432,0.0,0.0,0.0,5.3697933638722436e-05,-0.0002895344054369711,-0.00018011170596986611
16.578866000003472,0.0,0.0,0.0,-2.260524286438434e-05,0.00036424716885199716,-0.00017848412547336674
16.629535599997325,0.0,0.0,0.0,-1.8325938924561773e-06,0.00018971465545268004,-0.00010825989675569973
16.67458169999736,0.0,0.0,0.0,3.791768933881941e-05,-0.00023648094280508244,0.0001257977633486667
16.72807489999832,0.0,0.0,0.0,3.023441087844786e-06,0.00018344281587734146,0.0005705845555512003
16.778409400001692,0.0,0.0,0.0,2.5311652862297557e-05,-0.00017883304531253838,0.000310130916912838
16.828419700002996,0.0,0.0,0.0,-2.6345239548363756e-05,-0.00017597913111230034,-0.00019166350979930735
16.871908000000985,0.0,0.0,0.0,3.4009426878497022e-06,-3.8935083130153585e-05,-1.5423691843744918e-06
16.925640100002056,0.0,0.0,0.0,-4.301593500988954e-05,-0.00021854375976756665,-1.0417681979452572e-05
16.973140399997646,0.0,0.0,0.0,3.202539017184172e-05,0.00034622681061336543,0.00011871755443002733
17.026045200000226,0.0,0.0,0.0,1.4629426082547e-05,0.00019171548553291128,0.0003055680060137634
17.075605400001223,0.0,0.0,0.0,-6.279720882304385e-05,-9.977351037243387e-05,-4.756095907021052e-05
17.130337299997336,0.0,0.0,0.0,-1.3848094648428656e-06,0.00034667408621429107,8.5088375187262e-05
17.174067300002207,0.0,0.0,0.0,2.3335427186748933e-05,-0.0005889451183465509,0.00027883922636214346
17.22202390000166,0.0,0.0,0.0,5.534903325926932e-05,0.0003513936107451594,0.0001366870717679049
17.27176150000014,0.0,0.0,0.0,-2.8562854421102624e-05,4.385172083869954e-05,-0.0001314124658508571
17.326527500001248,0.0,0.0,0.0,9.671212201958914e-06,-0.0004463969399665232,-0.00019197610051757861
17.378384299998288,0.0,0.0,0.0,-2.256571810280994e-05,4.099890196344602e-05,0.00025256789515415055
17.425774200004525,0.0,0.0,0.0,6.351728190510609e-05,-1.170673135058459e-05,4.585619128076147e-05
17.48202200000378,0.0,0.0,0.0,-5.1963609192014024e-05,0.00018791045509200082,-0.0003013249587447765
17.529924100002972,0.0,0.0,0.0,-3.737046945782816e-05,7.46386688946026e-05,-0.00041617510925011467
17.577944700002263,0.0,0.0,0.0,6.537002323476798e-06,6.0137393843117756e-05,-0.0003205105742810461
17.623170099999697,0.0,0.0,0.0,-4.673564441896335e-06,-0.00016821248042897644,-0.00011469169926299057
17.67592329999752,0.0,0.0,0.0,-1.5125714985606502e-05,6.454219779412964e-06,-0.00016448329577223439
17.72149509999872,0.0,0.0,0.0,-1.6390469526560172e-06,-2.148363593343375e-05,-0.0001980399034599323
17.773133000002417,0.0,0.0,0.0,-2.6267409413405055e-05,0.00017071290392292704,-0.0003070012837081307
17.81950080000388,0.0,0.0,0.0,5.587795454396606e-05,-0.0003467960306120367,-0.00026328662125055886
17.869391799998994,0.0,0.0,0.0,6.010308657798532e-05,-0.0001681447369225249,-2.947405320576987e-05
17.929587999999058,0.0,0.0,0.0,-9.326756817364955e-05,0.0002657439104345083,-0.00012672065768879568
17.980868400001782,0.0,0.0,0.0,-8.49364491155799e-05,0.0008993664559703945,-8.753438867601064e-05
18.028176100000564,0.0,0.0,0.0,2.2052974271198394e-05,-0.0009634360829934247,-5.80355892456498e-06
18.080213900000672,0.0,0.0,0.0,-3.623524587245697e-05,0.00017564909115012862,-4.355062248528218e-06
18.12543960000039,0.0,0.0,0.0,8.262540440168648e-05,-0.00018980926040666906,-0.00021993405574335419
18.183044999997946,0.0,0.0,0.0,2.718811041362559e-05,0.0001211769674539814,0.00020598101397721283
18.22777209999913,0.0,0.0,0.0,5.267213164933597e-05,0.0005317384995705871,-0.00013050422528495831
18.278897199998028,0.0,0.0,0.0,-9.032311297341473e-06,-0.0006461755950612563,-0.00021211875873149974
18.32145390000369,0.0,0.0,0.0,-6.684900303332622e-05,7.123421329455669e-05,-5.772452676609465e-05
18.374919100002444,0.0,0.0,0.0,9.988669957004683e-05,-0.0003806232409033301,0.00030870765756994774
18.428674100003263,0.0,0.0,0.0,-8.573781604254674e-05,0.0002418361495110362,-5.532688520192919e-05
18.47322279999935,0.0,0.0,0.0,-1.5251674848394831e-05,0.00011393459732812526,0.0002659752584555372
18.525409699999727,0.0,0.0,0.0,6.0325589608117113e-05,-0.00011186884781412685,9.551776821007631e-05
18.574801700000535,0.0,0.0,0.0,1.0526256530442112e-05,0.0006775944631284589,-5.570657578486904e-05
18.629817699998966,0.0,0.0,0.0,-4.827837627371556e-05,-0.0006423660723255344,-5.3642905623579206e-05
18.672014900002978,0.0,0.0,0.0,2.934047716926032e-06,-1.0610473049420875e-05,0.0001401445284813891
18.73088060000009,0.0,0.0,0.0,2.961121887963255e-05,0.0001863813728789443,-5.7524054630102295e-05
18.779536000001826,0.0,0.0,0.0,-2.1517429566821452e-05,-0.0003388379998133633,1.9670617502558946e-05
18.827315100003034,0.0,0.0,0.0,-3.1731194050248396e-05,0.0004044868414854888,5.94825052764076e-05
18.877870600001188,0.0,0.0,0.0,2.867970215185039e-05,-0.00018643206738805287,-9.727832710452011e-06
18.92811040000379,0.0,0.0,0.0,-1.5294345297341683e-05,0.00017299557328081107,5.6681329188860254e-05
18.977841799998714,0.0,0.0,0.0,5.187932529914868e-06,8.770446987499636e-05,0.0002884575801031853
19.026856199998292,0.0,0.0,0.0,-1.2793843768616287e-05,0.00017257921420471063,8.797812008538051e-05
19.075940299997455,0.0,0.0,0.0,6.247344963906682e-05,-0.0004897925664254812,9.57222498262664e-05
19.127329000002646,0.0,0.0,0.0,-2.0230295701490256e-05,0.0004352636053208649,0.0002102459913458243
19.17527289999998,0.0,0.0,0.0,8.632805639144184e-06,1.4337041050926152e-05,0.00019298134204226295
19.22829030000139,0.0,0.0,0.0,-1.710252967155285e-05,-0.0002936196266569961,0.0001708234777306356
19.279560299997684,0.0,0.0,0.0,2.3556224378293736e-05,-4.8615536368356835e-05,0.00010207994640192624
19.328979199999594,0.0,0.0,0.0,5.9619982886954036e-05,0.00033212241249729393,-5.1498609692665865e-06
19.380118000000948,0.0,0.0,0.0,-5.872726532384042e-05,-0.0005059910589461402,0.00018827646857564419
19.42886720000388,0.0,0.0,0.0,-4.082118805768824e-05,-9.522314079007e-05,-0.00023258811923311697
19.48076620000211,0.0,0.0,0.0,6.741226917149149e-06,0.00058074425935938,-0.00035785380832902133
19.528223300003447,0.0,0.0,0.0,5.1148249497803594e-05,-0.0004402828935717492,6.264036463607638e-05
19.575746000002255,0.0,0.0,0.0,-1.4843229584216345e-05,8.591056440090074e-05,5.317426312981777e-05
19.629182700002275,0.0,0.0,0.0,-0.000135236323472799,-3.672642057359528e-05,-5.792735784682411e-05
19.680528400000185,0.0,0.0,0.0,0.00014219987361863669,-0.00041414980197160533,-8.201591236855807e-05
19.722864399998798,0.0,0.0,0.0,-7.276307406479772e-05,0.0001765602095375602,8.392692995936736e-05
19.778244900000573,0.0,0.0,0.0,4.763312641791743e-05,0.00034823093209387424,0.00013576542856399455
19.830609199998435,0.0,0.0,0.0,-6.144300858448812e-05,0.00011630948118549039,0.0001924018818278066
19.882267000000866,0.0,0.0,0.0,3.220521323068892e-05,-0.0004052009514917489,0.00025295593011934045
19.928165199999057,0.0,0.0,0.0,-1.8650329745994452e-05,0.0004484327319960636,0.0003169875117243177
19.97411380000267,0.0,0.0,0.0,5.249970643588962e-06,0.00016606980113714967,0.0003827797482132987
20.02767660000245,0.0,0.0,0.0,2.508513535070285e-05,-0.00027871052258955403,0.00028643419082148363
20.075219199999992,0.0,0.0,0.0,-4.428114792422888e-05,-0.0003071863582180487,0.00016011547140206084
20.12988359999872,0.0,0.0,0.0,-1.0417796114395304e-05,-1.9197218257468457e-05,0.00019157998261771323
20.175231000001077,0.0,0.0,0.0,-1.7517281728118497e-05,0.00013351723183742547,6.6547898852151e-05
20.22122870000021,0.0,0.0,0.0,-5.157533475979488e-05,-6.803123493038629e-05,-2.8258515751366436e-05
20.28015640000376,0.0,0.0,0.0,1.0569596680060438e-07,0.0003693829624361165,-0.00016751665177611012
20.33036130000255,0.0,0.0,0.0,9.271508034654643e-05,-0.0006419080068693058,-0.0001629876277197942
20.38213309999992,0.0,0.0,0.0,-0.00010365237033107883,4.037681541910794e-05,-0.00019988931804343495
20.429080200003227,0.0,0.0,0.0,7.784040291591628e-05,0.000254902289772343,-0.00010386999402153258
20.474147699998866,0.0,0.0,0.0,-1.8501101864320723e-06,0.0001854598412075258,-0.0001558288853941386
20.531871899998805,0.0,0.0,0.0,4.397382748105535e-05,0.0002511904371985419,-0.00033497496008355425
20.577534700001706,0.0,0.0,0.0,-6.633352202764913e-05,-0.00033852818783436194,5.043357646603564e-05
20.626958900000318,0.0,0.0,0.0,-2.1832702060779538e-05,0.0002877886789068232,-1.3597494704179835e-05
20.67932060000021,0.0,0.0,0.0,3.6151171687500195e-05,0.00018556574846464863,-0.00011215937990021343
20.72721029999957,0.0,0.0,0.0,3.793860351058262e-05,-4.823213643620092e-05,0.00023577655503343006
20.77371100000164,0.0,0.0,0.0,-3.9383631714211525e-05,-0.0005318182488990046,0.0003810865078375669
20.829073699998844,0.0,0.0,0.0,7.934495624570136e-05,-6.331291805959228e-05,0.00028348195637011177
20.878271900000982,0.0,0.0,0.0,-1.5235220246802444e-05,-6.38456000147356e-05,0.0004483577790388591
20.928643200000806,0.0,0.0,0.0,-6.020819881712479e-05,0.0002262184095721081,4.113955916609394e-05
20.981400399999984,0.0,0.0,0.0,3.1146786884988825e-05,-0.00014609449520748327,-8.904563457408092e-05
21.029606399999466,0.0,0.0,0.0,-2.4998521290934508e-05,0.00018171841170719404,6.840630070373952e-05
21.077123299997766,0.0,0.0,0.0,4.976843223006497e-05,0.0002768030722658961,6.723638834003035e-06
21.127165899997635,0.0,0.0,0.0,-1.045754197845116e-05,-0.000564298328850414,-3.287825278582602e-05
21.18125880000298,0.0,0.0,0.0,-1.411169792959283e-05,0.000202879019112879,-2.680522727292279e-05
21.225923600002716,0.0,0.0,0.0,-1.4265659546842164e-05,0.0004389143967469674,6.303990638545733e-05
21.278809100003855,0.0,0.0,0.0,7.61626948661123e-06,-0.0004586378358780503,-7.20331904588028e-05
21.329196999999112,0.0,0.0,0.0,-3.27535232463128e-05,1.2692789038694423e-05,1.6148971832790727e-05
21.384478200001467,0.0,0.0,0.0,1.1801670004579193e-05,-0.0003585223506203494,4.276683237624514e-05
21.429479500002344,0.0,0.0,0.0,-4.210650013874093e-06,0.0005694770266956537,-0.0001314920885489571
21.47717840000405,0.0,0.0,0.0,2.592538064445363e-05,2.1381311842210658e-05,-0.00021596633847994278
21.531513599999016,0.0,0.0,0.0,5.053588697840528e-06,0.0005241977253728909,0.00016131377377719868
21.58039529999951,0.0,0.0,0.0,-8.542401807303716e-06,-0.0007261200851610049,0.0003152955864785845
21.628836100004264,0.0,0.0,0.0,-4.0183951874121155e-05,0.0008083603430843314,-4.638581842294264e-06
21.678922600003716,0.0,0.0,0.0,3.2721202752761656e-05,-0.0005143559779415595,0.0001342176731969045
21.730014500004472,0.0,0.0,0.0,5.643504056034925e-05,7.274973440297679e-05,-0.00019752907174213052
21.780296000004455,0.0,0.0,0.0,-4.333330525596679e-05,-0.0005186921894860595,-4.992859614020292e-05
21.826201700001548,0.0,0.0,0.0,6.169000737003706e-05,0.0006218415530006488,-0.00017152470140100715
21.873901700004353,0.0,0.0,0.0,-4.075902568629718e-06,-0.0005725234847966578,-0.00029993619743900264
21.929212399998505,0.0,0.0,0.0,-0.00010624714966707993,-1.8215327247655573e-05,0.00010112851764006541
21.97818659999757,0.0,0.0,0.0,4.518670619463079e-05,-0.00011042611655966579,-0.0002639593966764445
22.027467600004456,0.0,0.0,0.0,1.7505908763483382e-06,-8.901656866668292e-05,-5.405482493348213e-06
22.079004899998836,0.0,0.0,0.0,5.1664245018705546e-05,8.902699040808485e-05,-4.4496307029062495e-05
22.127198700000008,0.0,0.0,0.0,-5.4489058221197794e-05,-7.928212850830075e-05,-0.00019580837170180576
22.177825999999186,0.0,0.0,0.0,-4.10290116488984e-06,0.0008189816213150973,-3.7411480714166456e-05
22.229753899999196,0.0,0.0,0.0,3.878424225364148e-05,-0.0004095077617747279,-0.00030400648151484964
22.275644499997725,0.0,0.0,0.0,3.8924577009797766e-05,-0.00025154535476311606,-0.0005142612019962718
22.329634599998826,0.0,0.0,0.0,-5.776541538911071e-05,0.0005078127387827336,-0.00042763845927023126
22.37880949999817,0.0,0.0,0.0,4.611848074207848e-05,-0.00043172777701460676,-0.00033382792196734245
22.427428599999985,0.0,0.0,0.0,-2.166762171134188e-05,0.0003668872498659386,-0.0002557292594101063
22.482099599998037,0.0,0.0,0.0,6.388947325103547e-06,-0.0005052119901805451,-0.00022964441045045478
22.52540769999905,0.0,0.0,0.0,-3.603676346560433e-06,0.00035427174931568185,-0.00040393695090838483
22.573698300002434,0.0,0.0,0.0,-6.424111992400769e-05,-0.0001209026122983831,7.173141224798376e-05
22.630077599998913,0.0,0.0,0.0,7.084643203939314e-05,0.0002970731760828064,0.000119281864588278
22.681331100000534,0.0,0.0,0.0,-4.085579298040396e-05,5.6648557862783065e-05,0.00026800225685962584
22.746494099999836,0.0,0.0,0.0,6.0030396411124505e-06,0.00012822260938803831,0.0002568965354483243
22.80238570000074,0.0,0.0,0.0,6.562484170845135e-06,-3.6989090855667636e-05,0.0003842848659938065
22.857633600004192,0.0,0.0,0.0,-2.94847136635685e-05,-0.0001614421264492451,0.00017444166671340508
22.9254843000017,0.0,0.0,0.0,4.93002011154487e-05,-0.00044725223601045367,-6.150573240795463e-05
22.965793800001848,0.0,0.0,0.0,-6.504832782740975e-05,-9.541986649349584e-05,3.511986881761571e-06
23.015148799997405,0.0,0.0,0.0,5.6707353229589205e-05,0.0001459698735765302,-4.246917359329957e-06
23.071870799998578,0.0,0.0,0.0,-8.258878643036086e-05,0.0003607742663820984,0.0001550878143912523
23.115179599997646,0.0,0.0,0.0,6.762012351246902e-05,-0.000532059808754338,9.868393411210401e-05
23.163547000003746,0.0,0.0,0.0,-2.2108245715866906e-05,-0.0003373547528052169,-0.0001891334155369203
23.218275500003074,0.0,0.0,0.0,3.877401490743362e-05,0.0002936352595926138,-0.00011493618040685125
23.25575150000077,0.0,0.0,0.0,-0.00013610398769446142,1.8775930762924e-07,0.00037216776391523116
23.30884099999821,0.0,0.0,0.0,6.261490941724933e-05,-4.314019049433889e-05,-4.759191064703297e-05
23.359898100003193,0.0,0.0,0.0,1.9178154376336027e-05,-0.00012482694052685686,8.561962657276957e-05
23.40971569999965,0.0,0.0,0.0,-7.140976459979612e-05,0.0007884812411697837,0.00015422522438845725
23.453597300002002,0.0,0.0,0.0,0.00013615031864655665,-0.0008520187848472196,7.29579236031351e-05
23.504799599999387,0.0,0.0,0.0,-4.7807230057509e-05,0.00037100659400490354,4.711809252065319e-05
23.560037200004444,0.0,0.0,0.0,1.7874921254106769e-06,-0.00012928737514593242,0.00031565360811085306
23.611675200001628,0.0,0.0,0.0,-1.8783741143307932e-05,0.00041964494517959295,1.560652285562889e-05
23.653250900002604,0.0,0.0,0.0,1.8638048900283593e-05,0.00014013130833974576,-7.268484710099209e-05
23.708303799998248,0.0,0.0,0.0,2.8365666570888303e-05,-0.00016897700822562619,0.00011936724483027316
23.758379300001252,0.0,0.0,0.0,-2.372134397506535e-05,-0.0005528415744564665,6.028229406440422e-05
23.806630200000654,0.0,0.0,0.0,2.0461468013283655e-05,0.00034017099375472086,7.912458641920913e-05
23.850672100001248,0.0,0.0,0.0,-3.527264479314348e-05,0.00026525949740462747,-0.00016410939617277605
23.90543730000354,0.0,0.0,0.0,1.81793259100424e-05,-0.0002701648241615376,4.8536314239084715e-05
23.95770469999843,0.0,0.0,0.0,1.6697616899942106e-05,3.898687772033549e-05,0.0004883060976334921
24.006493200002296,0.0,0.0,0.0,-0.0001178939423130524,-0.00021894776875532105,0.0002728472114267331
24.056364700001723,0.0,0.0,0.0,3.0779551896099674e-05,0.00024213973509612388,0.00021570414548181132
24.10836610000115,0.0,0.0,0.0,-5.877358304809352e-06,-0.0002321124437243702,0.00014085393181408144
24.156723400003102,0.0,0.0,0.0,4.9947140940440635e-05,0.00023989448318978993,6.0934808276075366e-05
24.209621699999843,0.0,0.0,0.0,4.617452425949091e-05,-0.00015718488620332193,-0.00020150323091432223
24.254843700000492,0.0,0.0,0.0,-2.558932076255372e-05,0.0004924396842230804,-0.00012869384941935986
24.29893119999906,0.0,0.0,0.0,4.067600600312808e-05,-0.00017566020433114077,-0.0002100013669363506
24.352511800003413,0.0,0.0,0.0,-0.00011370539186662816,4.0614304909901155e-05,-0.0001752886693729592
24.40897170000244,0.0,0.0,0.0,5.824501386365668e-05,-0.0001627725111187711,-3.590399725565606e-05
24.456482599998708,0.0,0.0,0.0,5.155315538285532e-05,-0.0002082432356599693,9.022169064188036e-05
24.503033900000446,0.0,0.0,0.0,-7.535667305466364e-05,0.00014057454611190296,0.00011602075654427421
24.55204750000121,0.0,0.0,0.0,2.833067670375855e-05,0.0005228629115966527,-1.0266313939462018e-05
24.610885800000688,0.0,0.0,0.0,-5.164659224294927e-05,0.00018281010801183702,0.00017845327934823014
24.65540250000049,0.0,0.0,0.0,-1.0820766561713999e-05,-0.000647573655419142,-0.00016584091347319173
24.703450599998177,0.0,0.0,0.0,3.5439440151714105e-05,0.0008456798116570775,-0.00022284388127773397
24.75702160000219,0.0,0.0,0.0,4.368384807481881e-05,-0.00045495884998179934,-0.0002021722731857858
24.81102600000304,0.0,0.0,0.0,-4.310190101248399e-05,-0.00022828122864840378,-0.00022137099910858322
24.860341799998423,0.0,0.0,0.0,-4.8289495084196734e-05,-3.064774428414949e-05,9.235659014975871e-05
24.905164499999955,0.0,0.0,0.0,0.00012120065117807588,-0.00044035960518159297,0.0005040691581678556
24.9582384000023,0.0,0.0,0.0,-8.132537932256396e-05,-3.0438972974634142e-05,0.00034601364089748216
25.005166000002646,0.0,0.0,0.0,6.991318448247737e-05,0.00018419350370849655,-2.1809441184428513e-05
25.060123499999463,0.0,0.0,0.0,-6.196817905882991e-05,0.0002408655171762081,0.00017309658849447605
25.102510199998505,0.0,0.0,0.0,1.8170615693039025e-06,-3.8373914086290526e-05,3.1256182565469314e-05
25.155844000000798,0.0,0.0,0.0,5.6429579506404884e-05,-0.00042761582836119795,6.645390263971824e-05
25.20701640000334,0.0,0.0,0.0,2.6217353757738363e-05,0.0004974993100199965,0.0002059648881466498
25.258111800001643,0.0,0.0,0.0,-0.00011047700742429575,0.0005890645498469933,-5.892455528891227e-05
25.30863749999844,0.0,0.0,0.0,5.378561263040103e-06,-0.0006431612462623775,0.00016893726709870464
25.358232999999018,0.0,0.0,0.0,3.399499719058768e-05,-9.127867331935888e-05,0.0002831938672506602
25.401185700000497,0.0,0.0,0.0,1.5153832912536088e-05,2.9048518215131716e-05,0.00027582712577713765
25.45769840000139,0.0,0.0,0.0,-4.5413740250432404e-05,0.00040868496347762817,3.115348243760224e-05
25.507237500001793,0.0,0.0,0.0,1.682387426034394e-05,0.0002969636093585927,-0.00012091331390626952
25.55727460000344,0.0,0.0,0.0,1.6847315100844075e-05,-0.0007041605540457413,-0.00017283908034303704
25.60554609999963,0.0,0.0,0.0,1.25642210242876e-05,-0.00021783399174360408,-0.00017352877164350042
25.65267550000135,0.0,0.0,0.0,2.047785187555004e-05,-0.0002625676488389118,-3.480861114990084e-05
25.709713199998077,0.0,0.0,0.0,1.4896052531291696e-05,0.0003018408078051415,-0.00020273712714841637
25.755330300002242,0.0,0.0,0.0,-5.008224893781342e-06,-0.00016525661428837423,-7.923826158107173e-05
25.807771200001298,0.0,0.0,0.0,-1.8588207524979046e-05,-0.00013305371921473348,-3.2911521672214985e-05
25.857309600003646,0.0,0.0,0.0,-5.7469221475161644e-05,0.00010102127642475301,0.0001440772154588109
25.90549530000135,0.0,0.0,0.0,2.8363086153906582e-05,0.001576191441060925,-3.8793259826475174e-05
25.94618420000188,0.0,0.0,0.0,-3.1405952335105864e-05,0.00021271361182409088,2.378556057405874e-05
26.00466679999954,0.0,0.0,0.0,1.6581431518648158e-06,3.456388898218794e-05,0.00010804049586419438
26.0537153999976,0.0,0.0,0.0,1.1174382237632886e-05,9.182078450501501e-05,-0.0001075171166505437
26.10606589999952,0.0,0.0,0.0,-7.724802858729635e-06,0.0003463905826891562,5.782868173765029e-05
26.156050400000822,0.0,0.0,0.0,-3.434025842561423e-05,-0.0006568708481322586,-5.04141761743787e-05
26.204372799998964,0.0,0.0,0.0,3.1029484471842774e-05,0.00016995154684917244,8.366901327557019e-05
26.25699739999982,0.0,0.0,0.0,3.6930540297037444e-05,0.00034449870540025063,8.663152221445984e-06
26.30016369999794,0.0,0.0,0.0,-4.349852416576082e-05,-0.0001676770369627031,-5.795752376543762e-06
26.355503400001908,0.0,0.0,0.0,3.718820431410124e-05,2.104770981342472e-06,-0.0001464185009594271
26.40688339999906,0.0,0.0,0.0,-3.1063771473225943e-05,1.6865142343902617e-05,4.011353295548977e-05
26.452688600002148,0.0,0.0,0.0,1.3994899220394249e-05,0.00025880313806584537,-2.0722671264355925e-05
26.501665600000706,0.0,0.0,0.0,-3.5507748103589656e-06,-0.0005255344548176081,0.0007540588964843507
26.554276399998344,0.0,0.0,0.0,2.0755926326133963e-05,6.727490731857568e-05,-5.245470058592811e-06
26.603002100004232,0.0,0.0,0.0,-1.2696071840790361e-05,0.000297960632224502,0.0003750336575246706
26.64783790000365,0.0,0.0,0.0,7.597641402736109e-06,-8.632661510447269e-05,0.00034368607775053415
26.702476899998146,0.0,0.0,0.0,-1.2683386826303523e-05,-0.00016899944264282138,-4.8879340556760625e-05
26.753270499997598,0.0,0.0,0.0,5.0598753366854495e-05,2.2354104709559193e-05,-1.9042742783616137e-05
26.804743500004406,0.0,0.0,0.0,-3.605004882064169e-05,2.745801302504921e-05,5.782355199587321e-05
26.84746450000239,0.0,0.0,0.0,-2.676829102791207e-06,0.00011766773010158335,-2.2331752875379234e-05
26.898692000002484,0.0,0.0,0.0,-0.0001413139470393847,0.0008947861101679415,4.08739626322518e-05
26.953105100001267,0.0,0.0,0.0,-3.815566183436683e-05,0.0003118157471122867,5.933836923703955e-06
27.00026760000037,0.0,0.0,0.0,-4.872839759391339e-06,-2.1523636670837182e-05,-9.75349627187163e-07
27.05286519999936,0.0,0.0,0.0,-5.507610144067526e-07,-2.906931113829253e-06,-5.03099631092577e-07
27.096863999999186,0.0,0.0,0.0,1.1528990799556834e-09,-1.4200244375488386e-06,-4.94294904325333e-07
27.15611070000159,0.0,0.0,0.0,6.724640551622856e-08,-1.586866065146537e-06,-7.618959913217725e-07
27.20874719999847,0.0,0.0,0.0,7.466768549465794e-08,-1.573355494781397e-06,-1.0522844412974823e-06
27.255274800001644,0.0,0.0,0.0,7.544193698800226e-08,-1.5621307601489042e-06,-1.3348207223059584e-06
27.304582700002356,0.0,0.0,0.0,7.565317198754732e-08,-1.5524741429219845e-06,-1.6235876829944495e-06
27.354582899999514,0.0,0.0,0.0,7.595641089878489e-08,-1.5421428792012515e-06,-1.9279611506956985e-06
27.400796900001296,0.0,0.0,0.0,7.648257292806157e-08,-1.5310923828666955e-06,-2.252189268242364e-06
27.45142230000056,0.0,0.0,0.0,7.73820018660036e-08,-1.5192378962646034e-06,-2.600224082337381e-06
27.499292200001946,0.0,0.0,0.0,7.89283828575813e-08,-1.5063560607386732e-06,-2.9778778358705776e-06
27.549663099998725,0.0,0.0,0.0,8.172643395541316e-08,-1.4920030804003603e-06,-3.393985539265147e-06
27.60017969999899,0.0,0.0,0.0,8.751149425265144e-08,-1.475087577931681e-06,-3.861292307263222e-06
27.651252900002874,0.0,0.0,0.0,1.049448510794419e-07,-1.4503628982364416e-06,-4.378630765680625e-06
27.704083500000706,0.0,0.0,0.0,4.449685516933775e-07,-1.1464782201883038e-06,-3.911927026070704e-06
27.752780200004054,0.0,0.0,0.0,6.340394048612233e-10,-2.0146558841402378e-06,-1.179554689573726e-05
27.806294900001376,0.0,0.0,0.0,-3.7651828007262676e-09,-1.1152386089754912e-06,-1.212535044448694e-05
27.851218900003005,0.0,0.0,0.0,3.10805450352708e-08,-1.2058386790467958e-06,-1.1455342510669266e-05
27.8975500000015,0.0,0.0,0.0,3.666664022913924e-08,-1.241625833256105e-06,-1.1328158131043942e-05
27.95580660000269,0.0,0.0,0.0,3.508778432196111e-08,-1.2390677512035383e-06,-1.1429638608490692e-05
28.005927700003667,0.0,0.0,0.0,3.4109491622625477e-08,-1.2337223418792638e-06,-1.1558558386068298e-05
28.056213700001535,0.0,0.0,0.0,3.3928690960240806e-08,-1.2296771571638902e-06,-1.1681793118437652e-05
28.105299599999853,0.0,0.0,0.0,3.39344146572568e-08,-1.2261359673663313e-06,-1.1806167839506382e-05
28.150433399998292,0.0,0.0,0.0,3.392181238151528e-08,-1.222522424606392e-06,-1.1936677256771324e-05
28.20546910000121,0.0,0.0,0.0,3.387916380107113e-08,-1.2187153864446582e-06,-1.2074446010915956e-05
28.253453500001342,0.0,0.0,0.0,3.3820078471041394e-08,-1.2147238391572861e-06,-1.2219562063855896e-05
28.303392399997392,0.0,0.0,0.0,3.374982925072898e-08,-1.210559886491487e-06,-1.2372119386568786e-05
28.34681119999732,0.0,0.0,0.0,3.366919593205062e-08,-1.2062262181057677e-06,-1.2532309958397471e-05
28.405507199997373,0.0,0.0,0.0,3.357819314786209e-08,-1.2017226152623935e-06,-1.2700370366130584e-05
28.451653900003294,0.0,0.0,0.0,3.34771949047234e-08,-1.1970486498889313e-06,-1.287655927506958e-05
28.497875400003977,0.0,0.0,0.0,3.3366810101022955e-08,-1.1922045224242044e-06,-1.3061158865572963e-05
28.55154020000191,0.0,0.0,0.0,3.324780021148663e-08,-1.1871910814083834e-06,-1.325448010515763e-05
28.599232300002768,0.0,0.0,0.0,3.3121192871769126e-08,-1.1820092640360874e-06,-1.345686795248123e-05
28.656183500002953,0.0,0.0,0.0,3.298818646577392e-08,-1.1766609178978718e-06,-1.3668708171559656e-05
28.70764240000426,0.0,0.0,0.0,3.2850270734691014e-08,-1.1711484380118678e-06,-1.389043390494608e-05
28.754253099999914,0.0,0.0,0.0,3.270933406225684e-08,-1.1654751033292473e-06,-1.4122534265308588e-05
28.801961299999675,0.0,0.0,0.0,3.256764273080604e-08,-1.1596455231771802e-06,-1.4365565211735241e-05
28.855319100002816,0.0,0.0,0.0,3.242803432357715e-08,-1.153665761444151e-06,-1.4620162080735463e-05
28.904831200001354,0.0,0.0,0.0,3.229405152034158e-08,-1.1475438303250129e-06,-1.4887055207785316e-05
28.95473309999943,0.0,0.0,0.0,3.2170129628462336e-08,-1.14129068032778e-06,-1.51670905269053e-05
29.005893900000956,0.0,0.0,0.0,3.206198035152025e-08,-1.1349208770087538e-06,-1.546125488386304e-05
29.054061299997556,0.0,0.0,0.0,3.1976869691478255e-08,-1.1284541720350818e-06,-1.5770710247476558e-05
29.099462800004403,0.0,0.0,0.0,3.1924279596736136e-08,-1.1219173480731481e-06,-1.6096836692602527e-05
29.154715900003794,0.0,0.0,0.0,3.1916866198893035e-08,-1.1153472472215371e-06,-1.64412916407225e-05
29.20269940000435,0.0,0.0,0.0,3.197159806142518e-08,-1.1087953187129091e-06,-1.6806091376556337e-05
29.25415839999914,0.0,0.0,0.0,3.211197074799828e-08,-1.1023341720069333e-06,-1.7193723862108657e-05
29.300774600000295,0.0,0.0,0.0,3.2371136917294525e-08,-1.096068699993727e-06,-1.7607312454642945e-05
29.351503899997624,0.0,0.0,0.0,3.279737208366518e-08,-1.090153670537994e-06,-1.805085856559973e-05
29.397774299999583,0.0,0.0,0.0,3.346347825648936e-08,-1.0848240493528937e-06,-1.8529614706028468e-05
29.452011300003505,0.0,0.0,0.0,3.448413990190973e-08,-1.0804494153672155e-06,-1.9050685376106074e-05
29.505617100003292,0.0,0.0,0.0,3.6049813253636404e-08,-1.0776372165106386e-06,-1.962404607677808e-05
29.552658599997812,0.0,0.0,0.0,3.8499304287086283e-08,-1.0774427281583418e-06,-2.026438875144197e-05
29.601761600002646,0.0,0.0,0.0,4.249156833665714e-08,-1.0818390409564073e-06,-2.0994766787350387e-05
29.647001600002113,0.0,0.0,0.0,4.9472419206481254e-08,-1.0948938462010617e-06,-2.185465586848587e-05
29.7006029999975,0.0,0.0,0.0,6.319170360012334e-08,-1.1262407477020548e-06,-2.292088551310025e-05
29.75121090000175,0.0,0.0,0.0,9.574286844908326e-08,-1.2041212008045677e-06,-2.437661045434606e-05
29.80486430000019,0.0,0.0,0.0,1.9095833879602903e-07,-1.4471466955634484e-06,-2.6821483689375187e-05
29.852600899997924,0.0,0.0,0.0,5.0592364273615e-07,-2.5626712067354232e-06,-3.302337503039699e-05
29.90565140000399,0.0,0.0,0.0,-1.7051071685692895e-07,-3.3364486557817868e-06,-3.992983105526578e-05
29.94911819999834,0.0,0.0,0.0,-1.4362518554415604e-07,-1.7689042594091344e-07,-3.978018578888844e-05
30.003469100003713,0.0,0.0,0.0,-6.353772841119812e-08,-2.639460517443966e-07,-3.901929817240135e-05
30.0465067000041,0.0,0.0,0.0,-5.310574991009348e-08,-3.431620465872904e-07,-3.8619865327130863e-05
30.10372869999992,0.0,0.0,0.0,-5.592845291324146e-08,-3.577207636603046e-07,-3.8363942224906684e-05
30.14777740000136,0.0,0.0,0.0,-5.780295617242148e-08,-3.6277492124998676e-07,-3.813807917618866e-05
30.199542200003634,0.0,0.0,0.0,-5.818152077575022e-08,-3.6612294714405706e-07,-3.7912206195186954e-05
30.25282470000093,0.0,0.0,0.0,-5.796077925561268e-08,-3.6938137465543923e-07,-3.768133348754062e-05
30.299266800000623,0.0,0.0,0.0,-5.7580040298429874e-08,-3.72762992606949e-07,-3.7445211513847044e-05
30.354946400002518,0.0,0.0,0.0,-5.717019062914638e-08,-3.7623773195783133e-07,-3.7203888692226446e-05
30.404362699999183,0.0,0.0,0.0,-5.675882239790713e-08,-3.797801733159083e-07,-3.695720228130121e-05
30.446144800000184,0.0,0.0,0.0,-5.634964116679814e-08,-3.833818653678201e-07,-3.6704857606747146e-05
30.505700599998818,0.0,0.0,0.0,-5.594301124983086e-08,-3.8704135511301394e-07,-3.6446494057725866e-05
30.554220400001213,0.0,0.0,0.0,-5.5539579102720137e-08,-3.9075850155373625e-07,-3.6181704394611024e-05
30.60420690000319,0.0,0.0,0.0,-5.514050149740625e-08,-3.9453317195293656e-07,-3.591003409287083e-05
30.65379799999937,0.0,0.0,0.0,-5.474733705848177e-08,-3.9836445197980904e-07,-3.563097444504184e-05
30.698245699997642,0.0,0.0,0.0,-5.4362014479484273e-08,-4.0225100648399647e-07,-3.534395334646639e-05
30.755302099998516,0.0,0.0,0.0,-5.398699190513024e-08,-4.0618989830979146e-07,-3.504832332189673e-05
30.807102300001134,0.0,0.0,0.0,-5.362533158801872e-08,-4.101772419994163e-07,-3.474334722382102e-05
30.846566400003212,0.0,0.0,0.0,-5.328091342465835e-08,-4.1420682815816946e-07,-3.4428179686208014e-05
30.900312899997516,0.0,0.0,0.0,-5.295870717173579e-08,-4.1826996862646847e-07,-3.410184391835127e-05
30.949826700001722,0.0,0.0,0.0,-5.2665096589568415e-08,-4.2235429646510864e-07,-3.3763201683798604e-05
31.006454399997892,0.0,0.0,0.0,-5.24085107095092e-08,-4.264424159477608e-07,-3.3410913983922516e-05
31.048380599997472,0.0,0.0,0.0,-5.22000950690862e-08,-4.3050962915216496e-07,-3.304338791136348e-05
31.098699399997713,0.0,0.0,0.0,-5.2054928030322246e-08,-4.3452106221977804e-07,-3.2658705558403475e-05
31.15595300000132,0.0,0.0,0.0,-5.1993795009833265e-08,-4.384269625842518e-07,-3.2254524648195934e-05
31.205814000000828,0.0,0.0,0.0,-5.204606603833387e-08,-4.4215507536921453e-07,-3.182793721091107e-05
31.257407500001136,0.0,0.0,0.0,-5.225428533208681e-08,-4.455994039363184e-07,-3.1375263052518235e-05
31.29767079999874,0.0,0.0,0.0,-5.268237505573529e-08,-4.486002166873411e-07,-3.08917377187115e-05
31.352265100002114,0.0,0.0,0.0,-5.343023784209342e-08,-4.5090979232115333e-07,-3.037102083435686e-05
31.404913799997303,0.0,0.0,0.0,-5.466215393947488e-08,-4.5213115654697086e-07,-2.980438766723524e-05
31.458222599998408,0.0,0.0,0.0,-5.666643435896703e-08,-4.515974126846264e-07,-2.917931871965587e-05
31.502988000000187,0.0,0.0,0.0,-5.999385228622442e-08,-4.4812329431543026e-07,-2.8476862681508474e-05
31.554984100002912,0.0,0.0,0.0,-6.582551763493557e-08,-4.394443370644807e-07,-2.7666254198299592e-05
31.604041400001734,0.0,0.0,0.0,-7.714842890648031e-08,-4.2083756486852403e-07,-2.6692675563897647e-05
31.655566000001272,0.0,0.0,0.0,-1.0364058133736655e-07,-3.8160860151837384e-07,-2.5446103121490395e-05
31.707326199997624,0.0,0.0,0.0,-1.910397552501196e-07,-3.012439091899609e-07,-2.3691888671144536e-05
31.746980000003532,0.0,0.0,0.0,-4.596527339006654e-07,4.436833509982809e-07,-2.049091744993395e-05
31.804786699998658,0.0,0.0,0.0,1.3858161704025286e-07,-2.6114074098070624e-07,-1.2011864325274974e-05
31.85580040000059,0.0,0.0,0.0,7.699393989997711e-08,-1.3625180693843303e-06,-1.263986095270468e-05
31.901982299998053,0.0,0.0,0.0,2.6788968559360013e-08,-1.194569332812694e-06,-1.3866194250715716e-05
31.955255400003807,0.0,0.0,0.0,2.3684556404944873e-08,-1.1406454596482207e-06,-1.4340076630648451e-05
31.998222700000042,0.0,0.0,0.0,2.7329729325812815e-08,-1.1333092753755487e-06,-1.4576172930240109e-05
32.05640139999741,0.0,0.0,0.0,2.850926744118591e-08,-1.1297406106642806e-06,-1.481072983004025e-05
32.10071179999795,0.0,0.0,0.0,2.8308461859129967e-08,-1.124215140671899e-06,-1.5071517475051216e-05
32.155720200004,0.0,0.0,0.0,2.787404089967441e-08,-1.1176584005979074e-06,-1.5348242368090078e-05
32.20472829999926,0.0,0.0,0.0,2.7476898413803364e-08,-1.1108434872349344e-06,-1.5635951668721504e-05
32.254959199999576,0.0,0.0,0.0,2.7109612312700782e-08,-1.1039489350306036e-06,-1.5934433716661954e-05
32.303525200004515,0.0,0.0,0.0,2.6750227777726833e-08,-1.0969778508322393e-06,-1.6244593853171183e-05
32.350598800003354,0.0,0.0,0.0,2.6395349869057565e-08,-1.0899291992903664e-06,-1.6567405850596164e-05
32.40459600000031,0.0,0.0,0.0,2.6049186611286966e-08,-1.0828177238738712e-06,-1.6903891722460297e-05
32.45474510000349,0.0,0.0,0.0,2.5717889067134442e-08,-1.07566836238844e-06,-1.7255221848078587e-05
32.50005180000153,0.0,0.0,0.0,2.540914924522326e-08,-1.0685147115854308e-06,-1.7622781743227062e-05
32.557053900003666,0.0,0.0,0.0,2.513291666085716e-08,-1.0614021913962877e-06,-1.8008232690513767e-05
32.60572630000388,0.0,0.0,0.0,2.4902711830562556e-08,-1.0543922692799548e-06,-1.8413588253473942e-05
32.6474825999976,0.0,0.0,0.0,2.4737265852681794e-08,-1.0475709501745993e-06,-1.8841323993187515e-05
32.69604350000009,0.0,0.0,0.0,2.4663163169662853e-08,-1.0410599234641074e-06,-1.9294534646314212e-05
32.7472912000012,0.0,0.0,0.0,2.4719240843164536e-08,-1.0350362087550192e-06,-1.9777166614013226e-05
32.79772470000171,0.0,0.0,0.0,2.496397060218385e-08,-1.0297644872476253e-06,-2.0294374491851753e-05
32.854278600003454,0.0,0.0,0.0,2.5489376088272402e-08,-1.0256538182394865e-06,-2.0853086659195992e-05
32.90479100000084,0.0,0.0,0.0,2.6447797909855056e-08,-1.0233653234666666e-06,-2.1462959039978358e-05
32.95099340000161,0.0,0.0,0.0,2.8107879482068672e-08,-1.0240261312315567e-06,-2.2138080433003313e-05
33.003410400000575,0.0,0.0,0.0,3.0985585001353096e-08,-1.0296973358256888e-06,-2.290028115900681e-05
33.05343079999875,0.0,0.0,0.0,3.618923914225836e-08,-1.0445187863738667e-06,-2.378629439571432e-05
33.0984998999993,0.0,0.0,0.0,4.6500809711534155e-08,-1.07796654905456e-06,-2.4865754047342134e-05
33.15187700000388,0.0,0.0,0.0,7.05227893362632e-08,-1.1564315254294435e-06,-2.6297664538634244e-05
33.20302339999762,0.0,0.0,0.0,1.4002959405563614e-07,-1.3816361966303006e-06,-2.8572767016737335e-05
33.25393640000402,0.0,0.0,0.0,3.961213036081597e-07,-2.3115990952610228e-06,-3.4011442714487476e-05
33.297010900001624,0.0,0.0,0.0,-4.414742029920684e-08,-4.283825990599693e-06,-4.2666578424488395e-05
33.35642740000185,0.0,0.0,0.0,-1.8707380760447976e-07,-2.605026528641396e-07,-4.31497849323696e-05
33.404376099999354,0.0,0.0,0.0,-8.034947980673568e-08,-1.2303966580779618e-07,-4.237202454183962e-05
33.44846310000139,0.0,0.0,0.0,-6.10594137156794e-08,-2.360495642629047e-07,-4.195209450940326e-05
33.496321300001,0.0,0.0,0.0,-6.297949469630432e-08,-2.5627771686275614e-07,-4.1705295716170634e-05
33.55320190000202,0.0,0.0,0.0,-6.523404802103203e-08,-2.622465996662228e-07,-4.150214696961055e-05
33.5994742000039,0.0,0.0,0.0,-6.589457408452022e-08,-2.653982700935524e-07,-4.130377692100097e-05
33.648434499998984,0.0,0.0,0.0,-6.579003392638057e-08,-2.681027818186457e-07,-4.1102158882155215e-05
33.707232900000236,0.0,0.0,0.0,-6.54458839884352e-08,-2.708447408961649e-07,-4.089626531344093e-05
33.74578560000373,0.0,0.0,0.0,-6.50434598322497e-08,-2.736573784190931e-07,-4.0686048894581556e-05
33.79894659999991,0.0,0.0,0.0,-6.462900438611586e-08,-2.7652396698452797e-07,-4.0471415504173635e-05
33.846931699998095,0.0,0.0,0.0,-6.421126184622198e-08,-2.794354916114928e-07,-4.025217193244485e-05
33.89968080000108,0.0,0.0,0.0,-6.379128865936346e-08,-2.82389146271983e-07,-4.0028069846212476e-05
33.94870790000277,0.0,0.0,0.0,-6.33691559205311e-08,-2.8538444944918255e-07,-3.979882701619492e-05
33.997627299999294,0.0,0.0,0.0,-6.294513681726038e-08,-2.8842093981620434e-07,-3.956413127879004e-05
34.04806860000099,0.0,0.0,0.0,-6.251964339519611e-08,-2.9149823663343044e-07,-3.932363854800137e-05
34.10447270000441,0.0,0.0,0.0,-6.209327896280652e-08,-2.946153313685062e-07,-3.907696861316891e-05
34.156374800004414,0.0,0.0,0.0,-6.166680402799166e-08,-2.977707049838351e-07,-3.882369924343727e-05
34.19833870000002,0.0,0.0,0.0,-6.12411698919185e-08,-3.0096220498139907e-07,-3.8563359728992996e-05
34.25321409999742,0.0,0.0,0.0,-6.081755947586242e-08,-3.0418667350667915e-07,-3.8295422734468705e-05
34.296553599997424,0.0,0.0,0.0,-6.039752096376979e-08,-3.074397402796369e-07,-3.8019294250176555e-05
34.354965400001674,0.0,0.0,0.0,-5.998296693015287e-08,-3.107154726070443e-07,-3.773430140516888e-05
34.39714760000061,0.0,0.0,0.0,-5.9576377975411525e-08,-3.140058161885555e-07,-3.743967700827423e-05
34.45603839999967,0.0,0.0,0.0,-5.918089144280778e-08,-3.1730007860771415e-07,-3.713454046019571e-05
34.50049020000006,0.0,0.0,0.0,-5.88006634526057e-08,-3.2058365725204424e-07,-3.681787285969465e-05
34.55285670000012,0.0,0.0,0.0,-5.8441049969051636e-08,-3.238370604844236e-07,-3.648848518853628e-05
34.603776600000856,0.0,0.0,0.0,-5.810922792183087e-08,-3.270338898698699e-07,-3.614497636659127e-05
34.65760109999974,0.0,0.0,0.0,-5.781483750726734e-08,-3.301380404281913e-07,-3.578567711489852e-05
34.70194199999969,0.0,0.0,0.0,-5.757107813674161e-08,-3.330998954024537e-07,-3.5408573696301664e-05
34.75387950000004,0.0,0.0,0.0,-5.739634100873159e-08,-3.358499039251725e-07,-3.5011201682511824e-05
34.80019590000302,0.0,0.0,0.0,-5.731695853698668e-08,-3.382897336035401e-07,-3.459049500968033e-05
34.84728719999839,0.0,0.0,0.0,-5.737165058730035e-08,-3.4027641153445585e-07,-3.414256342162428e-05
34.90365400000155,0.0,0.0,0.0,-5.761914909858639e-08,-3.415974494131054e-07,-3.366235573606785e-05
34.94900079999934,0.0,0.0,0.0,-5.8152558052176226e-08,-3.4192779734991407e-07,-3.314312996925842e-05
35.00150659999781,0.0,0.0,0.0,-5.912713871037094e-08,-3.407490348583844e-07,-3.257557463683832e-05
35.046236000001954,0.0,0.0,0.0,-6.081903216174242e-08,-3.3719754510479964e-07,-3.1946275404546806e-05
35.10101410000061,0.0,0.0,0.0,-6.376350604008578e-08,-3.297441638328978e-07,-3.123483778667976e-05
35.15494469999976,0.0,0.0,0.0,-6.912390194213136e-08,-3.154769414236286e-07,-3.0408009590201725e-05
35.20513609999762,0.0,0.0,0.0,-7.986815112261943e-08,-2.883286029637088e-07,-2.9406368583008647e-05
35.25362519999908,0.0,0.0,0.0,-1.0548750238142696e-07,-2.344574375717768e-07,-2.811103955498355e-05
35.30001830000401,0.0,0.0,0.0,-1.8627543412095255e-07,-1.231869052843346e-07,-2.627071604025317e-05
35.35110530000384,0.0,0.0,0.0,4.253954600244723e-07,1.2470471305598182e-06,-2.2446967489424568e-05
35.3974515000009,0.0,0.0,0.0,4.568905502774272e-08,-4.148808912348042e-06,-2.8451804359181474e-05
35.44865920000302,0.0,0.0,0.0,-1.1131562403091504e-06,7.030372658156236e-08,-3.3731448437420884e-05
35.50521000000299,0.0,0.0,0.0,4.309662539382629e-08,2.768983093227562e-06,-1.3747133482971422e-05
35.54892729999847,0.0,0.0,0.0,1.826676575112331e-07,-1.4845070069552432e-06,-1.0219842821083718e-05
35.59773110000242,0.0,0.0,0.0,4.109016031424658e-08,-1.3454401237918056e-06,-1.2668687246613194e-05
35.65429420000146,0.0,0.0,0.0,1.4406347459037262e-08,-1.1720538028705812e-06,-1.3734307602628557e-05
35.69913490000181,0.0,0.0,0.0,2.066537425409575e-08,-1.146107162663993e-06,-1.3997997088602778e-05
35.753752700002224,0.0,0.0,0.0,2.4845630209672885e-08,-1.145413084138897e-06,-1.4148841744651465e-05
35.80424779999885,0.0,0.0,0.0,2.5306917282767626e-08,-1.1428769607982747e-06,-1.4337817412373552e-05
35.85565530000167,0.0,0.0,0.0,2.4756439127868462e-08,-1.1375465692336383e-06,-1.4552355698190703e-05
35.90572339999926,0.0,0.0,0.0,2.419628490863011e-08,-1.1313759144022659e-06,-1.4775833968235851e-05
35.95879170000262,0.0,0.0,0.0,2.3709731383823536e-08,-1.1250871272722932e-06,-1.5004198432756486e-05
36.005405800002336,0.0,0.0,0.0,2.3237721895516157e-08,-1.1187451364604054e-06,-1.5237668716707534e-05
36.055453599998145,0.0,0.0,0.0,2.2754787292776418e-08,-1.1123105407536379e-06,-1.5476765727747837e-05
36.09853400000429,0.0,0.0,0.0,2.225795185239572e-08,-1.1057667691872283e-06,-1.5721764653804844e-05
36.15101760000107,0.0,0.0,0.0,2.1748453627477116e-08,-1.0991127602461902e-06,-1.597285196170163e-05
36.19715290000022,0.0,0.0,0.0,2.1226962471945824e-08,-1.0923509311000745e-06,-1.6230220851919993e-05
36.25381760000164,0.0,0.0,0.0,2.0693615330871808e-08,-1.0854835762604607e-06,-1.6494089156710076e-05
36.306133600002795,0.0,0.0,0.0,2.0148536212474127e-08,-1.0785128948209351e-06,-1.676469893172849e-05
36.35416450000048,0.0,0.0,0.0,1.9591803356004253e-08,-1.0714416560546145e-06,-1.7042318305941186e-05
36.396707500003686,0.0,0.0,0.0,1.902360775140202e-08,-1.0642729123879169e-06,-1.7327243253121583e-05
36.455836400004046,0.0,0.0,0.0,1.8444179328125033e-08,-1.0570104665942045e-06,-1.761980227944165e-05
36.50747080000292,0.0,0.0,0.0,1.785386430765869e-08,-1.0496589738660637e-06,-1.792036108759719e-05
36.55201720000332,0.0,0.0,0.0,1.725302582614037e-08,-1.0422240730325074e-06,-1.8229328713206432e-05
36.599324299997534,0.0,0.0,0.0,1.6642249450128536e-08,-1.034712436643172e-06,-1.8547163340075878e-05
36.65009350000037,0.0,0.0,0.0,1.6022210512334833e-08,-1.0271328324787057e-06,-1.887438194129901e-05
36.70343280000088,0.0,0.0,0.0,1.5393845149160092e-08,-1.0194954634211635e-06,-1.9211569802892352e-05
36.74756509999861,0.0,0.0,0.0,1.475830197345343e-08,-1.0118135331521577e-06,-1.9559393259182607e-05
36.79768830000103,0.0,0.0,0.0,1.411716164410546e-08,-1.004103482788866e-06,-1.9918615570606608e-05
36.85313319999841,0.0,0.0,0.0,1.3472470552122243e-08,-9.963861444592772e-07,-2.0290116997185293e-05
36.903122800002166,0.0,0.0,0.0,1.2826949772727711e-08,-9.88688284070181e-07,-2.067492044882645e-05
36.952613599998585,0.0,0.0,0.0,1.2184182753395725e-08,-9.81044425568491e-07,-2.1074224649058272e-05
37.006235100001504,0.0,0.0,0.0,1.1549086813672868e-08,-9.734996521927333e-07,-2.1489447481752567e-05
37.04641249999986,0.0,0.0,0.0,1.092835931028516e-08,-9.661141152976205e-07,-2.1922285020905868e-05
37.10035929999867,0.0,0.0,0.0,1.0331278734981411e-08,-9.589685763157034e-07,-2.2374791970617318e-05
37.15393050000421,0.0,0.0,0.0,9.7710046490085e-09,-9.521738101776095e-07,-2.284949296349637e-05
37.19778110000334,0.0,0.0,0.0,9.26659423661263e-09,-9.458850341545097e-07,-2.3349543677311355e-05
37.25256719999743,0.0,0.0,0.0,8.84639554736635e-09,-9.403252079258851e-07,-2.387896851868462e-05
37.300202700003865,0.0,0.0,0.0,8.553836094737956e-09,-9.358236530483708e-07,-2.4443024729592797e-05
37.35112540000409,0.0,0.0,0.0,8.458578064176274e-09,-9.328848967903718e-07,-2.5048782540230906e-05
37.40228030000435,0.0,0.0,0.0,8.677615044411512e-09,-9.323169182732363e-07,-2.570610448959594e-05
37.44752790000348,0.0,0.0,0.0,9.420925428875434e-09,-9.354871745113523e-07,-2.6429400826388628e-05
37.49744559999817,0.0,0.0,0.0,1.1098209974990868e-08,-9.448815383308916e-07,-2.7241051816451048e-05
37.55322370000067,0.0,0.0,0.0,1.4605512486400053e-08,-9.654766755003363e-07,-2.8178860681470555e-05
37.599469200002204,0.0,0.0,0.0,2.223920839471954e-08,-1.0086777659637383e-06,-2.9315004681303827e-05
37.65079600000172,0.0,0.0,0.0,4.134347232546262e-08,-1.1065393404170156e-06,-3.0816817418187247e-05
37.70195889999741,0.0,0.0,0.0,1.014615534155806e-07,-1.385945002318254e-06,-3.322381902232819e-05
37.74569619999966,0.0,0.0,0.0,4.0932991617876163e-07,-2.6668929591667514e-06,-3.989531909227966e-05
37.7959886000026,0.0,0.0,0.0,-1.4654062803170321e-07,-5.509270959434744e-06,-4.997846662161834e-05
37.84589750000305,0.0,0.0,0.0,-2.1549730858561613e-07,-6.750782927044077e-08,-5.023221320967754e-05
37.8967821000042,0.0,0.0,0.0,-9.929487156952601e-08,4.3300424280574906e-08,-4.9528098381142816e-05
37.953103400002874,0.0,0.0,0.0,-7.844549652694115e-08,-8.009072927933825e-08,-4.91736903176055e-05
38.00306840000121,0.0,0.0,0.0,-7.976653581487158e-08,-9.998042208888446e-08,-4.8976977414176817e-05
38.05519880000065,0.0,0.0,0.0,-8.193755005818736e-08,-1.0604481281077286e-07,-4.8823874346155376e-05
38.097657099999196,0.0,0.0,0.0,-8.271146561088522e-08,-1.0880360324789843e-07,-4.8678951752691304e-05
38.14890369999921,0.0,0.0,0.0,-8.273279114374574e-08,-1.1074912750944916e-07,-4.853360289040125e-05
38.206542300002184,0.0,0.0,0.0,-8.248371022617457e-08,-1.125698777438187e-07,-4.838610002070379e-05
38.251749399998516,0.0,0.0,0.0,-8.215280449375042e-08,-1.1439619248098681e-07,-4.8236141500054495e-05
38.30320660000143,0.0,0.0,0.0,-8.179801950173486e-08,-1.1624543737764418e-07,-4.8083641505725053e-05
38.353466799999296,0.0,0.0,0.0,-8.143449107158534e-08,-1.1811786221748392e-07,-4.792851906656465e-05
38.396227900004305,0.0,0.0,0.0,-8.10655217444002e-08,-1.2001267476144894e-07,-4.777067759613419e-05
38.44670290000067,0.0,0.0,0.0,-8.069165879250403e-08,-1.2192944880022081e-07,-4.7610008375512564e-05
38.503255000003264,0.0,0.0,0.0,-8.031285043995132e-08,-1.2386848097249722e-07,-4.744639365440372e-05
38.5453611999983,0.0,0.0,0.0,-7.99289778166514e-08,-1.2582973166188662e-07,-4.727970699311666e-05
38.594398499997624,0.0,0.0,0.0,-7.953992967344918e-08,-1.278135112548271e-07,-4.710981309515337e-05
38.65340160000051,0.0,0.0,0.0,-7.914557767611508e-08,-1.2981977777187957e-07,-4.6936566890995774e-05
38.705589600001986,0.0,0.0,0.0,-7.874582856710417e-08,-1.3184858246442933e-07,-4.6759812589663855e-05
38.75567140000203,0.0,0.0,0.0,-7.834055433468855e-08,-1.3389974515737285e-07,-4.657938251358891e-05
38.80145450000418,0.0,0.0,0.0,-7.792966340669311e-08,-1.3597321269052614e-07,-4.639509597085022e-05
38.84743999999773,0.0,0.0,0.0,-7.751305419786168e-08,-1.3806837387177909e-07,-4.620675747855879e-05
38.903437300003134,0.0,0.0,0.0,-7.709064685503746e-08,-1.4018477342907458e-07,-4.601415530068718e-05
38.94649070000014,0.0,0.0,0.0,-7.666236307358438e-08,-1.4232159045364942e-07,-4.581705948463951e-05
39.00303089999943,0.0,0.0,0.0,-7.622815223243982e-08,-1.444777203231775e-07,-4.561521943372548e-05
39.04633710000053,0.0,0.0,0.0,-7.57879983151046e-08,-1.4665176836705838e-07,-4.5408361445787305e-05
39.103624299998046,0.0,0.0,0.0,-7.534189368384082e-08,-1.4884178815150185e-07,-4.519618532952994e-05
39.150803800002905,0.0,0.0,0.0,-7.488989429602776e-08,-1.5104538090314852e-07,-4.4978361102112434e-05
39.203548900004535,0.0,0.0,0.0,-7.443209964463181e-08,-1.5325955951469128e-07,-4.475452443030487e-05
39.25306300000375,0.0,0.0,0.0,-7.396868728519289e-08,-1.5548053721813306e-07,-4.452427165914397e-05
39.30596700000024,0.0,0.0,0.0,-7.349992134353726e-08,-1.5770322600629567e-07,-4.428715340758168e-05
39.35558599999786,0.0,0.0,0.0,-7.302621292988256e-08,-1.5992165374344217e-07,-4.4042667259839365e-05
39.39629170000262,0.0,0.0,0.0,-7.254810838814429e-08,-1.6212788651059497e-07,-4.379024856856459e-05
39.44453439999779,0.0,0.0,0.0,-7.206638058047977e-08,-1.643121468930304e-07,-4.352925931642945e-05
39.50411539999914,0.0,0.0,0.0,-7.158210882577646e-08,-1.6646180043911587e-07,-4.3258974106662023e-05
39.55520170000091,0.0,0.0,0.0,-7.109672695500961e-08,-1.685610694906833e-07,-4.297856288846304e-05
39.59920470000361,0.0,0.0,0.0,-7.061223261120698e-08,-1.7058912014037065e-07,-4.268706839339021e-05
39.64680729999964,0.0,0.0,0.0,-7.013133529190053e-08,-1.7251952478518306e-07,-4.2383378006570155e-05
39.69874240000354,0.0,0.0,0.0,-6.965775997121336e-08,-1.7431753128490266e-07,-4.206618653468952e-05
39.75115989999904,0.0,0.0,0.0,-6.919667704549332e-08,-1.7593737729972445e-07,-4.173394675641273e-05
39.80436380000174,0.0,0.0,0.0,-6.875535398847857e-08,-1.7731758869821634e-07,-4.13848029436352e-05
39.85406530000182,0.0,0.0,0.0,-6.834411972981152e-08,-1.7837536593286767e-07,-4.101649978762762e-05
39.90016589999868,0.0,0.0,0.0,-6.797804038864962e-08,-1.789958469297179e-07,-4.0626253163459347e-05
39.9531380000044,0.0,0.0,0.0,-6.76794134594867e-08,-1.7901732218234983e-07,-4.02105639909483e-05
39.9981231999991,0.0,0.0,0.0,-6.748246312832343e-08,-1.7820646374739385e-07,-3.976494083450956e-05
40.05212570000003,0.0,0.0,0.0,-6.744146367927733e-08,-1.762157200437913e-07,-3.928347050071516e-05
40.101093299999775,0.0,0.0,0.0,-6.764634555560471e-08,-1.7250951373208905e-07,-3.875812620207617e-05
40.147836399999505,0.0,0.0,0.0,-6.825502490739514e-08,-1.6622598250174977e-07,-3.817759437486184e-05
40.19821410000441,0.0,0.0,0.0,-6.956539864693128e-08,-1.5589967976043904e-07,-3.752515517002533e-05
40.24730070000078,0.0,0.0,0.0,-7.219597328807258e-08,-1.3886781552683084e-07,-3.6774556406722776e-05
40.29755760000262,0.0,0.0,0.0,-7.760764263826573e-08,-1.0986614827570844e-07,-3.588120377762605e-05
40.35014950000186,0.0,0.0,0.0,-8.9906464859288e-08,-5.740344346322278e-08,-3.476135077230665e-05
40.40263489999779,0.0,0.0,0.0,-1.232260098050031e-07,4.603761387147585e-08,-3.324054815443156e-05
40.45262489999732,0.0,0.0,0.0,-2.3309894755696144e-07,2.5706011086167865e-07,-3.098336006818498e-05
40.49768100000074,0.0,0.0,0.0,-9.341956809081443e-07,1.7293622414800301e-06,-3.303162751616044e-05
40.54564140000002,0.0,0.0,0.0,2.2278243950104261e-07,6.55711283592735e-07,-1.2342939471347307e-06
40.602510199998505,0.0,0.0,0.0,2.033364453748335e-07,-2.3234436910266924e-06,2.592360459931044e-06
40.651180699998804,0.0,0.0,0.0,9.524330999775323e-08,-1.7850309208098247e-06,-1.1086166537233492e-06
40.7035584999976,0.0,0.0,0.0,6.441664781476907e-08,-1.6222994117617333e-06,-2.7600078524663094e-06
40.74557890000142,0.0,0.0,0.0,6.223836799557882e-08,-1.6150848349101261e-06,-3.2436218127388555e-06
40.79857379999885,0.0,0.0,0.0,6.455025297212212e-08,-1.6106623619599927e-06,-3.5629802111468403e-06
40.848783000001276,0.0,0.0,0.0,6.746933957950961e-08,-1.5929872131968984e-06,-3.958567010836516e-06
40.90314170000056,0.0,0.0,0.0,7.532325592193376e-08,-1.5620725859166754e-06,-4.4117961770852435e-06
40.95384349999949,0.0,0.0,0.0,1.0782506053721366e-07,-1.4339055221137881e-06,-4.735588117151927e-06
41.00466959999903,0.0,0.0,0.0,-6.533133501811614e-08,-1.7724781535212133e-06,-7.854746031024398e-06
41.05432970000402,0.0,0.0,0.0,9.874747357513319e-08,-1.3267897387640464e-06,-5.606628876312628e-06
41.09732040000381,0.0,0.0,0.0,2.27431324136001e-07,-1.2467997656784503e-06,-3.935343887306184e-06
41.15073890000349,0.0,0.0,0.0,-3.6093094415786346e-08,-1.9897183048106115e-06,-8.777212045387307e-06
41.20333460000256,0.0,0.0,0.0,-8.268252800827516e-09,-1.3490838381990688e-06,-1.0027071252757442e-05
41.253910699997505,0.0,0.0,0.0,2.4883346564296198e-08,-1.36737872756233e-06,-9.483667302532974e-06
41.30527180000354,0.0,0.0,0.0,3.228616187239607e-08,-1.4126610633322414e-06,-9.204141731417086e-06
41.353938799999014,0.0,0.0,0.0,3.207859349677455e-08,-1.4202276984296878e-06,-9.131771515326602e-06
41.40281459999824,0.0,0.0,0.0,3.1427241160445015e-08,-1.4226757995410168e-06,-9.094292749136281e-06
41.452373300002364,0.0,0.0,0.0,3.1202033902153554e-08,-1.4262754309505624e-06,-9.044601457244285e-06
41.500182399999176,0.0,0.0,0.0,3.1117168449996776e-08,-1.4309506307407752e-06,-8.982079209138063e-06
41.55044690000068,0.0,0.0,0.0,3.101113614246447e-08,-1.436256401344991e-06,-8.90957707310196e-06
41.59659079999983,0.0,0.0,0.0,3.0844635984189084e-08,-1.4421384069862622e-06,-8.826818514338291e-06
41.64663609999843,0.0,0.0,0.0,3.059543651808719e-08,-1.4487342339690423e-06,-8.731894389466822e-06
41.70473309999943,0.0,0.0,0.0,3.021859653034161e-08,-1.4562632040531114e-06,-8.622142418468759e-06
41.74755600000208,0.0,0.0,0.0,2.9623086927734184e-08,-1.4650544107229417e-06,-8.494080473799462e-06
41.804806500003906,0.0,0.0,0.0,2.86155250779761e-08,-1.4756703883293582e-06,-8.34303115744161e-06
41.84728650000034,0.0,0.0,0.0,2.6712851890137972e-08,-1.4892495984855885e-06,-8.16296341814919e-06
41.897792600000685,0.0,0.0,0.0,2.229155106357573e-08,-1.508848866393807e-06,-7.949786023958782e-06
41.94415010000375,0.0,0.0,0.0,3.7093627201211094e-09,-1.5506905591444185e-06,-7.76955510879065e-06
42.00258300000132,0.0,0.0,0.0,-4.096084336188775e-08,-1.6949233084686478e-06,-7.603588455263353e-06
42.04865480000444,0.0,0.0,0.0,1.200077764304105e-07,-1.5205079178327432e-06,-3.4684780647542388e-06
42.10001829999965,0.0,0.0,0.0,8.044385165418162e-08,-1.6911311191227157e-06,-4.094590195032427e-06
42.14755420000438,0.0,0.0,0.0,7.391610514786846e-08,-1.5909340860543516e-06,-4.931623107916656e-06
42.20315610000398,0.0,0.0,0.0,9.912823497109033e-08,-1.450748846178006e-06,-5.3583279770187365e-06
42.25433000000339,0.0,0.0,0.0,-8.797547821613401e-08,-1.816547715231691e-06,-8.614075066633306e-06
42.30345849999867,0.0,0.0,0.0,-5.057593315327802e-08,-1.7697470936078853e-06,-8.097706333850386e-06
42.354799300002924,0.0,0.0,0.0,1.3169968513065765e-07,-1.39047085559768e-06,-3.5742955458467933e-06
42.4042707999979,0.0,0.0,0.0,8.540322695493358e-08,-1.745612412008992e-06,-3.498127616559896e-06
42.44935819999955,0.0,0.0,0.0,6.686242458489883e-08,-1.6560635831884126e-06,-4.357807764018886e-06
42.5021768000006,0.0,0.0,0.0,6.618993243478064e-08,-1.6054913914434166e-06,-4.969683212956337e-06
42.552027600002475,0.0,0.0,0.0,8.502765262667572e-08,-1.5544573633171435e-06,-5.385514793654795e-06
42.598228100003325,0.0,0.0,0.0,-1.5157928141853547e-07,-6.395081436619129e-06,-9.856789398594166e-06
42.653827300004195,0.0,0.0,0.0,5.599858058122905e-07,-3.0302660320495998e-06,1.036058791570318e-05
42.70439289999922,0.0,0.0,0.0,1.5482597838229388e-07,-2.8668592448261324e-06,1.1562382946301003e-05
42.749159700004384,0.0,0.0,0.0,1.0688058710898046e-07,-2.511547337197352e-06,1.1041634124521222e-05
42.796683000000485,0.0,0.0,0.0,1.0125436375470192e-07,-2.425576215400281e-06,1.0686687439306005e-05
42.84822600000189,0.0,0.0,0.0,9.965272264810965e-08,-2.419089596534123e-06,1.051103184676537e-05
42.903993300002185,0.0,0.0,0.0,9.880316366462944e-08,-2.42094591422702e-06,1.0401689326341522e-05
42.95284260000335,0.0,0.0,0.0,9.830694924534273e-08,-2.422040468700808e-06,1.0308545499149463e-05
43.00430380000034,0.0,0.0,0.0,9.795965567794241e-08,-2.4221703215813616e-06,1.021747480621611e-05
43.05356000000029,0.0,0.0,0.0,9.765936494417591e-08,-2.4218892208867e-06,1.0125829159515254e-05
43.10392120000324,0.0,0.0,0.0,9.736939627435672e-08,-2.4214770381882005e-06,1.003347138755517e-05
43.15289399999892,0.0,0.0,0.0,9.707983661158178e-08,-2.421020769947405e-06,9.940540636212618e-06
43.206334100003005,0.0,0.0,0.0,9.678880648009444e-08,-2.420538909492041e-06,9.847110107553323e-06
43.24792590000288,0.0,0.0,0.0,9.649617165866384e-08,-2.4200332825815846e-06,9.753200814849006e-06
43.2944725999987,0.0,0.0,0.0,9.620199178447537e-08,-2.4195030826165543e-06,9.658814610480336e-06
43.346236400000635,0.0,0.0,0.0,9.590630680426202e-08,-2.4189476475930522e-06,9.563948375258345e-06
43.40655820000393,0.0,0.0,0.0,9.560911580656559e-08,-2.418366370571296e-06,9.468598104348681e-06
43.452715200000966,0.0,0.0,0.0,9.531041233674587e-08,-2.4177589465910345e-06,9.372759693269437e-06
43.49806610000087,0.0,0.0,0.0,9.501018417735302e-08,-2.417125034838637e-06,9.276429025055178e-06
43.55562569999893,0.0,0.0,0.0,9.47083932966196e-08,-2.4164642401900208e-06,9.179601998586766e-06
43.59767419999844,0.0,0.0,0.0,9.440505614095369e-08,-2.415776182767566e-06,9.082274321180714e-06
43.65435240000079,0.0,0.0,0.0,9.410014355846528e-08,-2.4150604696040366e-06,8.984441526723498e-06
43.701775200002885,0.0,0.0,0.0,9.37936546014288e-08,-2.4143166710774276e-06,8.886099183493766e-06
43.74773129999812,0.0,0.0,0.0,9.348553968483918e-08,-2.413544528740055e-06,8.787242623609126e-06
43.801856700003555,0.0,0.0,0.0,9.317582328440674e-08,-2.412743513768309e-06,8.68786722492469e-06
43.85374199999933,0.0,0.0,0.0,9.286446394145969e-08,-2.4119132188503144e-06,8.587968096678086e-06
43.903706400000374,0.0,0.0,0.0,9.255144300460619e-08,-2.411053244178182e-06,8.487540260100424e-06
43.95157199999812,0.0,0.0,0.0,9.22367621249591e-08,-2.4101632172944398e-06,8.386578627046114e-06
44.00506419999874,0.0,0.0,0.0,9.192038462514362e-08,-2.409242544072113e-06,8.285078040578407e-06
44.05170360000193,0.0,0.0,0.0,9.160230545890195e-08,-2.4082909602787913e-06,8.183033077821763e-06
44.09971999999834,0.0,0.0,0.0,9.128251050133713e-08,-2.407307823524069e-06,8.080438295937571e-06
44.14482890000363,0.0,0.0,0.0,9.096096506246137e-08,-2.4062927814769805e-06,7.977288055586879e-06
44.20360050000454,0.0,0.0,0.0,9.063765326289903e-08,-2.4052453623783085e-06,7.873576586966054e-06
44.24908700000378,0.0,0.0,0.0,9.031257284597476e-08,-2.404164961471787e-06,7.769297934300813e-06
44.30318260000058,0.0,0.0,0.0,8.998568038789641e-08,-2.403051143458273e-06,7.664446098828006e-06
44.35149049999745,0.0,0.0,0.0,8.965697845887684e-08,-2.4019034344282004e-06,7.559014742292378e-06
44.399456500003,0.0,0.0,0.0,8.932642846330377e-08,-2.400721192181528e-06,7.452997507330895e-06
44.453963699997985,0.0,0.0,0.0,8.899402073834586e-08,-2.3995039775836226e-06,7.34638778619154e-06
44.504450200001884,0.0,0.0,0.0,8.865972197984829e-08,-2.3982512170796833e-06,7.239178832093048e-06
44.54565140000341,0.0,0.0,0.0,8.832352485218414e-08,-2.3969622756768765e-06,7.131363720041285e-06
44.60201880000386,0.0,0.0,0.0,8.798538968993724e-08,-2.3956367103228847e-06,7.022935369079088e-06
44.6541980999973,0.0,0.0,0.0,8.764531110766728e-08,-2.394273794498194e-06,6.913886404572865e-06
44.69881990000431,0.0,0.0,0.0,8.730324343264825e-08,-2.3928730154770943e-06,6.804209320357536e-06
44.75416419999965,0.0,0.0,0.0,8.69591885647432e-08,-2.391433677702407e-06,6.693896383744512e-06
44.79608720000397,0.0,0.0,0.0,8.661310547810299e-08,-2.3899551904791533e-06,6.582939703874417e-06
44.85402500000055,0.0,0.0,0.0,8.626496207608262e-08,-2.388436905318419e-06,6.4713311209298e-06
44.9071707999974,0.0,0.0,0.0,8.591475752011926e-08,-2.3868781501612383e-06,6.35906218862735e-06
44.94631980000122,0.0,0.0,0.0,8.5562436617883e-08,-2.3852782040706425e-06,6.246124345549827e-06
44.9972431999995,0.0,0.0,0.0,8.520798815635283e-08,-2.383636407418099e-06,6.132508694394591e-06
45.053158700000495,0.0,0.0,0.0,8.485138840402577e-08,-2.3819520308747945e-06,6.018206081133586e-06
45.10430520000227,0.0,0.0,0.0,8.44925908782314e-08,-2.380224352906155e-06,5.9032071266615915e-06
45.15080780000426,0.0,0.0,0.0,8.413157943633252e-08,-2.3784525618004838e-06,5.787502271159429e-06
45.2035149000003,0.0,0.0,0.0,8.376831548268177e-08,-2.37663596886138e-06,5.671081462162651e-06
45.24504860000161,0.0,0.0,0.0,8.340278543198196e-08,-2.374773661704876e-06,5.553934491482263e-06
45.303270299998985,0.0,0.0,0.0,8.303492891320759e-08,-2.3728649814335793e-06,5.436050863971129e-06
45.35405180000089,0.0,0.0,0.0,8.266474441824642e-08,-2.3709089664314872e-06,5.317419684757206e-06
45.404701999999816,0.0,0.0,0.0,8.229217067345035e-08,-2.3689047903979108e-06,5.198029864729938e-06
45.45334620000358,0.0,0.0,0.0,8.191719270817988e-08,-2.3668516015248803e-06,5.077869842059001e-06
45.50611239999853,0.0,0.0,0.0,8.153976532287052e-08,-2.3647484288238754e-06,4.9569277746144005e-06
45.55048859999806,0.0,0.0,0.0,8.11598601184937e-08,-2.3625944302967817e-06,4.835191387258975e-06
45.60287799999787,0.0,0.0,0.0,8.077743137614196e-08,-2.36038856739137e-06,4.712648136203907e-06
45.6531535000031,0.0,0.0,0.0,8.03924532565721e-08,-2.3581298951436306e-06,4.589284998299691e-06
45.705409100002726,0.0,0.0,0.0,8.000486962765198e-08,-2.3558174091604686e-06,4.465088551856379e-06
45.7533573000037,0.0,0.0,0.0,7.961465575275499e-08,-2.3534500125198194e-06,4.3400450326539965e-06
45.80170050000015,0.0,0.0,0.0,7.922175925243538e-08,-2.3510267131957017e-06,4.214140074475674e-06
45.8497475999975,0.0,0.0,0.0,7.882614097586152e-08,-2.3485464059905484e-06,4.087358984412665e-06
45.90577740000299,0.0,0.0,0.0,7.842776272737234e-08,-2.3460079073775455e-06,3.959686576896063e-06
45.95166759999847,0.0,0.0,0.0,7.802657323582313e-08,-2.343410054882459e-06,3.831107085166089e-06
46.0025558999987,0.0,0.0,0.0,7.762253144786454e-08,-2.3407516948053407e-06,3.7016043172374468e-06
46.05798019999929,0.0,0.0,0.0,7.721558099577226e-08,-2.338031552133958e-06,3.571161466911612e-06
46.09952209999756,0.0,0.0,0.0,7.680568270645166e-08,-2.335248356357789e-06,3.439761149269765e-06
46.15313210000022,0.0,0.0,0.0,7.63927826337407e-08,-2.332400820164652e-06,3.307385483969851e-06
46.202988999997615,0.0,0.0,0.0,7.597682903781397e-08,-2.3294875867224682e-06,3.174015894282099e-06
46.25332999999955,0.0,0.0,0.0,7.555776352616912e-08,-2.32650721586962e-06,3.03963312763681e-06
46.30321560000448,0.0,0.0,0.0,7.513554054705134e-08,-2.3234582983569333e-06,2.9042172728110036e-06
46.35110340000392,0.0,0.0,0.0,7.471009709493889e-08,-2.320339307875858e-06,2.767747783276063e-06
46.404878400004236,0.0,0.0,0.0,7.428137770981072e-08,-2.3171487997722996e-06,2.63020328537681e-06
46.451639899998554,0.0,0.0,0.0,7.384931495552914e-08,-2.3138850835717703e-06,2.4915616774479443e-06
46.502031000003626,0.0,0.0,0.0,7.34138554854373e-08,-2.310546623935456e-06,2.351800005986622e-06
46.554997600003844,0.0,0.0,0.0,7.297492361341356e-08,-2.307131612596749e-06,2.2108944942886604e-06
46.60909730000276,0.0,0.0,0.0,7.253246461340488e-08,-2.3036383632809623e-06,2.068820468287892e-06
46.6465051999985,0.0,0.0,0.0,7.208640231273321e-08,-2.300065018770558e-06,1.9255522156066986e-06
46.69745920000423,0.0,0.0,0.0,7.163666974169901e-08,-2.2964097478822166e-06,1.7810631237439862e-06
46.75012830000196,0.0,0.0,0.0,7.118319524303797e-08,-2.292670569058286e-06,1.6353255052336307e-06
46.79850330000045,0.0,0.0,0.0,7.072589498388579e-08,-2.288845481205476e-06,1.4883105646178851e-06
46.8556355000037,0.0,0.0,0.0,7.026469700446717e-08,-2.284932395810162e-06,1.3399884075867375e-06
46.90378729999793,0.0,0.0,0.0,6.97995128445146e-08,-2.2809290554940427e-06,1.190327840611444e-06
46.95471120000002,0.0,0.0,0.0,6.933026576533319e-08,-2.2768333640114988e-06,1.0392963303842651e-06
47.00512890000391,0.0,0.0,0.0,6.885686984800212e-08,-2.272642852211646e-06,8.868601015552728e-07
47.05225700000301,0.0,0.0,0.0,6.837921464377694e-08,-2.2683550903466187e-06,7.329837439911215e-07
47.098671300002025,0.0,0.0,0.0,6.789722732463911e-08,-2.2639675640460124e-06,5.776304822285097e-07
47.14655379999749,0.0,0.0,0.0,6.741079350372348e-08,-2.259477693145631e-06,4.2076180056870357e-07
47.19816050000372,0.0,0.0,0.0,6.691982413737564e-08,-2.2548826787122796e-06,2.6233751102190303e-07
47.25088300000061,0.0,0.0,0.0,6.642421367359049e-08,-2.2501795812518276e-06,1.0231557765044052e-07
47.30390869999974,0.0,0.0,0.0,6.592382792656112e-08,-2.2453654933717253e-06,-5.934807632713734e-08
47.352337099997385,0.0,0.0,0.0,6.541858917923632e-08,-2.2404373008339136e-06,-2.2269955334135883e-07
47.40243390000251,0.0,0.0,0.0,6.49083430085938e-08,-2.2353916460321544e-06,-3.8778722420878684e-07
47.44681710000441,0.0,0.0,0.0,6.43929762701451e-08,-2.2302251701447125e-06,-5.546618709131042e-07
47.495286600002146,0.0,0.0,0.0,6.387236641798583e-08,-2.224934270976347e-06,-7.233769063744866e-07
47.550074899998435,0.0,0.0,0.0,6.3346359750286e-08,-2.2195151686704262e-06,-8.939884019096777e-07
47.60309660000348,0.0,0.0,0.0,6.281481855852546e-08,-2.213963925037524e-06,-1.06655536261185e-06
47.65500240000256,0.0,0.0,0.0,6.227759954346396e-08,-2.208276346828983e-06,-1.241140022369425e-06
47.706964900004095,0.0,0.0,0.0,6.173453268348292e-08,-2.2024480777307574e-06,-1.4178082862738066e-06
47.75172729999758,0.0,0.0,0.0,6.118546315881011e-08,-2.1964744290127986e-06,-1.5966296115810754e-06
47.80420939999749,0.0,0.0,0.0,6.063021458891327e-08,-2.190350597509716e-06,-1.777677492575497e-06
47.85134960000141,0.0,0.0,0.0,6.006859397403099e-08,-2.184071327705359e-06,-1.9610298047323058e-06
47.89911740000389,0.0,0.0,0.0,5.9500407343975994e-08,-2.177631144844687e-06,-2.1467694686538943e-06
47.94795480000175,0.0,0.0,0.0,5.892547244765773e-08,-2.17102423096293e-06,-2.3349844878250654e-06
48.00594920000003,0.0,0.0,0.0,5.834354469122007e-08,-2.1642443323114234e-06,-2.525768636047536e-06
48.05469910000102,0.0,0.0,0.0,5.775441982335723e-08,-2.1572847981933414e-06,-2.7192220878660437e-06
48.10194149999734,0.0,0.0,0.0,5.715784249234229e-08,-2.1501384788266953e-06,-2.9154520957168498e-06
48.15322759999981,0.0,0.0,0.0,5.6553571831032465e-08,-2.1427977849462193e-06,-3.114573616711937e-06
48.19487949999893,0.0,0.0,0.0,5.5941319788804716e-08,-2.1352544577389164e-06,-3.3167102082474074e-06
48.252625699999044,0.0,0.0,0.0,5.5320808527304904e-08,-2.1274995408936884e-06,-3.5219950777725467e-06
48.30042410000169,0.0,0.0,0.0,5.469175085218929e-08,-2.1195234027385803e-06,-3.7305724758259487e-06
48.352595700001984,0.0,0.0,0.0,5.4053789587802925e-08,-2.1113155750309513e-06,-3.942598614684318e-06
48.40330600000016,0.0,0.0,0.0,5.340660547072943e-08,-2.1028644326867882e-06,-4.158243587751574e-06
48.44685639999807,0.0,0.0,0.0,5.274984905453431e-08,-2.0941572845460252e-06,-4.377693227458582e-06
48.500957399999606,0.0,0.0,0.0,5.208310623832555e-08,-2.08518027593357e-06,-4.6011514922095e-06
48.55630989999918,0.0,0.0,0.0,5.140600461454148e-08,-2.075917696349394e-06,-4.82884315014636e-06
48.603882800001884,0.0,0.0,0.0,5.0718120924089496e-08,-2.0663521255726486e-06,-5.061016929883768e-06
48.652976400000625,0.0,0.0,0.0,5.001900259315559e-08,-2.056463967093985e-06,-5.297949978617802e-06
48.702847200002,0.0,0.0,0.0,4.930824383469347e-08,-2.0462308188565445e-06,-5.539952657233105e-06
48.75596460000088,0.0,0.0,0.0,4.8585402812039426e-08,-2.0356270560226932e-06,-5.78737491983679e-06
48.79823330000363,0.0,0.0,0.0,4.785007743379969e-08,-2.024622855337102e-06,-6.0406146299291475e-06
48.854216100000485,0.0,0.0,0.0,4.710194875952189e-08,-2.013183459160357e-06,-6.300127123333793e-06
48.90507290000096,0.0,0.0,0.0,4.634079822871459e-08,-2.0012673226557353e-06,-6.566438744835707e-06
48.9519597000035,0.0,0.0,0.0,4.55667062643336e-08,-1.988824376756429e-06,-6.840164406500216e-06
49.00017630000366,0.0,0.0,0.0,4.478012922238531e-08,-1.975793038002155e-06,-7.1220305615101865e-06
49.0554467999973,0.0,0.0,0.0,4.398229591125209e-08,-1.9620960098379033e-06,-7.412906614296607e-06
49.102965199999744,0.0,0.0,0.0,4.3175842466893175e-08,-1.947633488347738e-06,-7.71384828902695e-06
49.14993749999849,0.0,0.0,0.0,4.2365930780418975e-08,-1.932272948620115e-06,-8.026158822242356e-06
49.20600600000034,0.0,0.0,0.0,4.1562688812310796e-08,-1.9158308245317177e-06,-8.351475402946432e-06
49.25288400000136,0.0,0.0,0.0,4.0786381734491807e-08,-1.8980399775348877e-06,-8.691892274908877e-06
49.30519050000294,0.0,0.0,0.0,4.008003894150193e-08,-1.8784832770799003e-06,-9.050126270033214e-06
49.35450800000399,0.0,0.0,0.0,3.9543845785115415e-08,-1.8564435255467214e-06,-9.429688346870491e-06
49.40770820000034,0.0,0.0,0.0,3.9450395297362e-08,-1.8304869599238952e-06,-9.8347082370451e-06
49.44928600000276,0.0,0.0,0.0,4.077572090898145e-08,-1.7968964139496996e-06,-1.026659391588503e-05
49.50125919999846,0.0,0.0,0.0,5.026906174103987e-08,-1.73810503577423e-06,-1.067718353512979e-05
49.545730199999525,0.0,0.0,0.0,-2.588080000747649e-08,-1.977672617079596e-06,-1.2452813838261192e-05
49.60617450000427,0.0,0.0,0.0,-2.816737269817157e-08,-1.6186705695725233e-06,-1.2175867285809882e-05
49.65152769999986,0.0,0.0,0.0,1.7084203200893643e-07,-1.5117331608956652e-06,-1.0935569272938487e-05
49.69871050000074,0.0,0.0,0.0,-6.681800387491001e-08,-2.0719592297423135e-06,-1.3745266029143045e-05
49.750235300001805,0.0,0.0,0.0,-1.693271328093013e-08,-1.957040639415136e-06,-1.4070609696227894e-05
49.804660399997374,0.0,0.0,0.0,1.2423018612266647e-07,-1.5850314698683595e-06,-1.0597391718881031e-05
49.84784390000277,0.0,0.0,0.0,9.024875278602257e-08,-1.7521908766413203e-06,-1.0703894364066097e-05
49.90222740000172,0.0,0.0,0.0,3.9134005672351855e-07,-7.441818339222013e-06,-1.285448792386275e-05
49.9539775000012,0.0,0.0,0.0,4.893900995528593e-07,-2.727870562857089e-06,7.822236526129037e-07
50.003416200001084,0.0,0.0,0.0,1.3050825460839961e-07,-2.8729465942268273e-06,1.2453896662555343e-06
50.05588210000133,0.0,0.0,0.0,8.01313263046927e-08,-2.653921035401617e-06,9.757044225079006e-07
50.10554530000081,0.0,0.0,0.0,7.344434266570175e-08,-2.5981092321549877e-06,7.492415266105945e-07
50.151406900004076,0.0,0.0,0.0,7.22591561032104e-08,-2.588874856124608e-06,5.921882309631534e-07
50.20298999999795,0.0,0.0,0.0,7.175923116633254e-08,-2.5870019266339067e-06,4.644392557014215e-07
50.25344420000329,0.0,0.0,0.0,7.136401640961066e-08,-2.5861635173210255e-06,3.4531717906377074e-07
50.30506459999742,0.0,0.0,0.0,7.099228662575784e-08,-2.585259873876254e-06,2.279009513610688e-07
50.35326050000003,0.0,0.0,0.0,7.062634194627921e-08,-2.584221831251361e-06,1.1039562504508173e-07
50.40410100000008,0.0,0.0,0.0,7.026078998643228e-08,-2.5831035697189345e-06,-7.549767057415518e-09
50.45463290000043,0.0,0.0,0.0,6.989398749265891e-08,-2.581935898184435e-06,-1.2597286325301358e-07
50.50678129999869,0.0,0.0,0.0,6.952546365334748e-08,-2.580729488219894e-06,-2.448685975054348e-07
50.55285079999885,0.0,0.0,0.0,6.91551251083352e-08,-2.5794866849355682e-06,-3.64235115453937e-07
50.60472480000317,0.0,0.0,0.0,6.878291690527149e-08,-2.5782076581059356e-06,-4.840755542684832e-07
50.65259050000168,0.0,0.0,0.0,6.840881649846978e-08,-2.5768917649201734e-06,-6.043954131237913e-07
50.70219960000395,0.0,0.0,0.0,6.803280769318799e-08,-2.5755383485970853e-06,-7.252009977777458e-07
50.7524087999991,0.0,0.0,0.0,6.765484005610834e-08,-2.5741467349373054e-06,-8.464990064200016e-07
50.80316750000202,0.0,0.0,0.0,6.727489674087263e-08,-2.572716124250025e-06,-9.682963273931449e-07
50.851738600002136,0.0,0.0,0.0,6.689294834686419e-08,-2.5712459759712716e-06,-1.0906001146577562e-06
50.90284509999765,0.0,0.0,0.0,6.650895386682267e-08,-2.5697353311384514e-06,-1.2134177047816187e-06
50.95213550000335,0.0,0.0,0.0,6.612289478985412e-08,-2.568183664676324e-06,-1.3367566974908812e-06
50.99727780000103,0.0,0.0,0.0,6.573471572756703e-08,-2.566589936462826e-06,-1.460624952252764e-06
51.05373490000056,0.0,0.0,0.0,6.534439970077283e-08,-2.564953563147601e-06,-1.5850305414707769e-06
51.10279889999947,0.0,0.0,0.0,6.495190850730764e-08,-2.563273620314282e-06,-1.7099817770482284e-06
51.150564399998984,0.0,0.0,0.0,6.455719957267799e-08,-2.561549305105776e-06,-1.8354873472543108e-06
51.20386139999755,0.0,0.0,0.0,6.416025014785288e-08,-2.5597796286292216e-06,-1.961556126333029e-06
51.24768169999879,0.0,0.0,0.0,6.376100790430971e-08,-2.557963858176672e-06,-2.0881973193560858e-06
51.29632510000374,0.0,0.0,0.0,6.335942628068703e-08,-2.5561009499173743e-06,-2.2154203434430404e-06
51.35367290000431,0.0,0.0,0.0,6.295548234335047e-08,-2.5541900493705446e-06,-2.3432350484515024e-06
51.404211200002464,0.0,0.0,0.0,6.254911808419804e-08,-2.5522300469706572e-06,-2.4716515689704554e-06
51.450627400001395,0.0,0.0,0.0,6.214029768384976e-08,-2.55022006251456e-06,-2.600680401550138e-06
51.50329269999929,0.0,0.0,0.0,6.172898116963727e-08,-2.548158917509661e-06,-2.73033234887133e-06
51.55434139999852,0.0,0.0,0.0,6.13151043103843e-08,-2.546045685285732e-06,-2.8606186909968625e-06
51.60430489999999,0.0,0.0,0.0,6.089863902928493e-08,-2.5438791958676535e-06,-2.9915509453255627e-06
51.64717910000036,0.0,0.0,0.0,6.047952708972684e-08,-2.5416582841176936e-06,-3.123141178789212e-06
51.70401980000315,0.0,0.0,0.0,6.00577227836006e-08,-2.5393818051466656e-06,-3.255401727006129e-06
51.751870599997346,0.0,0.0,0.0,5.963314770243518e-08,-2.5370485853327747e-06,-3.388345505100159e-06
51.79619400000229,0.0,0.0,0.0,5.920579590828529e-08,-2.5346573358235375e-06,-3.521985766322026e-06
51.84584709999763,0.0,0.0,0.0,5.877556063971738e-08,-2.5322066964065028e-06,-3.656336356685809e-06
51.900714499999594,0.0,0.0,0.0,5.8342425643670634e-08,-2.529695405464018e-06,-3.7914115974690134e-06
51.94574149999971,0.0,0.0,0.0,5.790629736401984e-08,-2.527122091099638e-06,-3.927226276167569e-06
52.00357680000161,0.0,0.0,0.0,5.746713670518903e-08,-2.5244853873114673e-06,-4.063795795392417e-06
52.045492500001274,0.0,0.0,0.0,5.7024866144530264e-08,-2.5217836016138277e-06,-4.201136024557106e-06
52.103265400000964,0.0,0.0,0.0,5.657942614733687e-08,-2.519015476928418e-06,-4.339263543372127e-06
52.14495909999823,0.0,0.0,0.0,5.613074153933372e-08,-2.516179274952892e-06,-4.478195498286841e-06
52.20870509999804,0.0,0.0,0.0,5.567875220226906e-08,-2.5132733503662336e-06,-4.617949792662915e-06
52.251403900001606,0.0,0.0,0.0,5.5223365835509836e-08,-2.510296149375305e-06,-4.7585448702365845e-06
52.3032411000022,0.0,0.0,0.0,5.476452660531344e-08,-2.5072457740540535e-06,-4.900000084040139e-06
52.35307599999942,0.0,0.0,0.0,5.430214375088348e-08,-2.5041205444686793e-06,-5.042335384936145e-06
52.39807480000309,0.0,0.0,0.0,5.383613816446315e-08,-2.500918455757768e-06,-5.185571482070278e-06
52.45264450000104,0.0,0.0,0.0,5.33664170499329e-08,-2.4976376502786497e-06,-5.329730127635752e-06
52.503847799998766,0.0,0.0,0.0,5.289290361863415e-08,-2.4942760211380576e-06,-5.474833872638632e-06
52.54700410000078,0.0,0.0,0.0,5.241549429206438e-08,-2.4908315371069975e-06,-5.620906233679837e-06
52.59909509999852,0.0,0.0,0.0,5.19341078878311e-08,-2.487302006740309e-06,-5.767971627489953e-06
52.65350590000162,0.0,0.0,0.0,5.144863132550569e-08,-2.4836851183797397e-06,-5.916055534915567e-06
52.703469599997334,0.0,0.0,0.0,5.0958956536919805e-08,-2.4799785103398946e-06,-6.065184575618543e-06
52.75106560000131,0.0,0.0,0.0,5.046499424501981e-08,-2.476179769186516e-06,-6.215386551387541e-06
52.80260529999941,0.0,0.0,0.0,4.996660067480142e-08,-2.472286320210449e-06,-6.366690452172315e-06
52.85375410000415,0.0,0.0,0.0,4.946369853454845e-08,-2.4682954386927047e-06,-6.5191265508434804e-06
52.89954520000174,0.0,0.0,0.0,4.895614794287733e-08,-2.464204484745858e-06,-6.672726532421008e-06
52.95240909999848,0.0,0.0,0.0,4.844380530669277e-08,-2.4600104100231134e-06,-6.827523478292129e-06
53.001613699998416,0.0,0.0,0.0,4.792655865334511e-08,-2.4557102900585184e-06,-6.9835520558326425e-06
53.05244600000151,0.0,0.0,0.0,4.740425508130851e-08,-2.4513009279451696e-06,-7.140848587992697e-06
53.09624880000047,0.0,0.0,0.0,4.6876739506286505e-08,-2.446779018043736e-06,-7.299451150205388e-06
53.14808020000055,0.0,0.0,0.0,4.634389356428816e-08,-2.442141127316888e-06,-7.459399630929639e-06
53.20376150000084,0.0,0.0,0.0,4.5805521994838e-08,-2.437383590693846e-06,-7.620736022419432e-06
53.25618409999879,0.0,0.0,0.0,4.526146899808299e-08,-2.432502682412939e-06,-7.783504211283267e-06
53.30215770000359,0.0,0.0,0.0,4.4711555087365874e-08,-2.4274942928650105e-06,-7.947750596809298e-06
53.35301540000364,0.0,0.0,0.0,4.4155600089144725e-08,-2.422354407543682e-06,-8.113523919195474e-06
53.401017000003776,0.0,0.0,0.0,4.359339189314212e-08,-2.4170785410271124e-06,-8.28087544879489e-06
53.45081290000235,0.0,0.0,0.0,4.302473977197189e-08,-2.411662109979611e-06,-8.449859262901158e-06
53.504224199998134,0.0,0.0,0.0,4.244940949765376e-08,-2.406100168052595e-06,-8.620532466613687e-06
53.55134700000053,0.0,0.0,0.0,4.1867184000217005e-08,-2.400387701311055e-06,-8.792955483505206e-06
53.60500850000244,0.0,0.0,0.0,4.1277810069783835e-08,-2.3945191838456827e-06,-8.967192065271775e-06
53.65540699999838,0.0,0.0,0.0,4.0681038022010784e-08,-2.388488920974411e-06,-9.143309881310083e-06
53.70479709999927,0.0,0.0,0.0,4.007657847669686e-08,-2.3822908496038e-06,-9.321380544483243e-06
53.74587569999858,0.0,0.0,0.0,3.94641465924174e-08,-2.375918483915965e-06,-9.501480142402446e-06
53.80322139999771,0.0,0.0,0.0,3.884342607422656e-08,-2.369365044468692e-06,-9.683689677601462e-06
53.856329399997776,0.0,0.0,0.0,3.8214080822405755e-08,-2.3626231674814043e-06,-9.868095220748798e-06
53.90466100000049,0.0,0.0,0.0,3.757574823581645e-08,-2.3556850922813037e-06,-1.0054788773291703e-05
53.95384300000296,0.0,0.0,0.0,3.6928074331125675e-08,-2.348542589080662e-06,-1.0243868635525818e-05
53.99504870000237,0.0,0.0,0.0,3.62706088704503e-08,-2.3411866476501834e-06,-1.0435439858348137e-05
54.04584700000123,0.0,0.0,0.0,3.560293321147088e-08,-2.333607718785427e-06,-1.0629615302815627e-05
54.10594560000027,0.0,0.0,0.0,3.4924550451772764e-08,-2.325795551676351e-06,-1.0826516230676412e-05
54.143932400002086,0.0,0.0,0.0,3.4234946710954674e-08,-2.3177390595471276e-06,-1.1026273263101008e-05
54.19656760000362,0.0,0.0,0.0,3.353355514167662e-08,-2.309426050284309e-06,-1.1229027525003182e-05
54.25414969999838,0.0,0.0,0.0,3.281976675478822e-08,-2.300843478769199e-06,-1.1434931899056423e-05
54.297929000000295,0.0,0.0,0.0,3.209288424404871e-08,-2.291977087845726e-06,-1.164415243923163e-05
54.35232540000288,0.0,0.0,0.0,3.1352171229572796e-08,-2.2828110793657755e-06,-1.1856870099728612e-05
54.404917200001364,0.0,0.0,0.0,3.05968097995864e-08,-2.2733282680910403e-06,-1.2073282686160097e-05
54.45506269999896,0.0,0.0,0.0,2.982588229925057e-08,-2.263509331176888e-06,-1.2293607506724968e-05
54.5050104999973,0.0,0.0,0.0,2.9038366528600264e-08,-2.253333102657622e-06,-1.2518084117519768e-05
54.55408929999976,0.0,0.0,0.0,2.8233132083393393e-08,-2.242775395975969e-06,-1.2746977768076678e-05
54.59823250000045,0.0,0.0,0.0,2.7408905971062142e-08,-2.2318093617053573e-06,-1.2980583969082191e-05
54.648198100003356,0.0,0.0,0.0,2.656421910981295e-08,-2.2204039511123225e-06,-1.3219233404462583e-05
54.699069100002816,0.0,0.0,0.0,2.569745333362254e-08,-2.2085236251419082e-06,-1.346329897495676e-05
54.74594600000273,0.0,0.0,0.0,2.4806711012359834e-08,-2.196126989194856e-06,-1.3713203805995093e-05
54.803929900001094,0.0,0.0,0.0,2.3889837077659053e-08,-2.1831652478402117e-06,-1.3969432207522741e-05
54.85270300000411,0.0,0.0,0.0,2.294435886386003e-08,-2.169579751439302e-06,-1.4232543151981892e-05
54.89819539999735,0.0,0.0,0.0,2.1967416715231078e-08,-2.1552995832483105e-06,-1.4503188718596068e-05
54.95538780000061,0.0,0.0,0.0,2.0955782782437393e-08,-2.140236036783249e-06,-1.4782138145375898e-05
55.00048750000133,0.0,0.0,0.0,1.9905797730507446e-08,-2.1242763207293667e-06,-1.5070310057822399e-05
55.04607950000354,0.0,0.0,0.0,1.8813572094052128e-08,-2.1072724698190166e-06,-1.5368818039003885e-05
55.09883049999917,0.0,0.0,0.0,1.767548877838781e-08,-2.0890225791318675e-06,-1.5679031283719982e-05
55.155594299998484,0.0,0.0,0.0,1.6489599775765344e-08,-2.0692386217248313e-06,-1.6002659075136155e-05
55.204417799999646,0.0,0.0,0.0,1.5259924757922965e-08,-2.0474822697701624e-06,-1.634185784586688e-05
55.25452380000206,0.0,0.0,0.0,1.4009310836915611e-08,-2.0230280748939255e-06,-1.669933010201297e-05
55.301960199998575,0.0,0.0,0.0,1.2825408083634111e-08,-1.994513635632707e-06,-1.7078201440988342e-05
55.35327259999758,0.0,0.0,0.0,1.2066749138538169e-08,-1.958802818876036e-06,-1.7480271512570936e-05
55.399871400004486,0.0,0.0,0.0,1.3882391585414249e-08,-1.9051208305701889e-06,-1.7889280094860274e-05
55.45125240000198,0.0,0.0,0.0,-5.5342119881321246e-08,-1.82323597700873e-06,-1.874946769640564e-05
55.49486540000362,0.0,0.0,0.0,2.405997478715379e-07,-1.2245068025489699e-06,-1.6905694969870553e-05
55.556676599997445,0.0,0.0,0.0,-1.66645162101082e-07,-2.241307250675498e-06,-2.1143189797706713e-05
55.604504100003396,0.0,0.0,0.0,-1.1455808627556404e-07,-1.6873661423735122e-06,-2.5387024023150642e-05
55.654027500000666,0.0,0.0,0.0,-2.9229551101152486e-08,-1.4942424352843385e-06,-2.5355174456163773e-05
55.702934200002346,0.0,0.0,0.0,-4.838546901262867e-09,-1.5633503104681133e-06,-2.512933900968817e-05
55.75447189999977,0.0,0.0,0.0,-2.953446759944115e-09,-1.5773777619322187e-06,-2.5174844779397206e-05
55.807861400004185,0.0,0.0,0.0,-4.634784043518554e-09,-1.573088177270248e-06,-2.5334865019063664e-05
55.84563850000268,0.0,0.0,0.0,-5.7960860980456696e-09,-1.56575376938134e-06,-2.5514727882790174e-05
55.89553480000177,0.0,0.0,0.0,-6.4739701702086214e-09,-1.5585973350269335e-06,-2.5693619001061813e-05
55.95596859999932,0.0,0.0,0.0,-7.027244500453799e-09,-1.5516831660450611e-06,-2.5872240324613968e-05
56.00417279999965,0.0,0.0,0.0,-7.583649313494424e-09,-1.5447341278252268e-06,-2.6052690680113926e-05
56.05029700000159,0.0,0.0,0.0,-8.158178041088743e-09,-1.5376406033035767e-06,-2.6235662412246625e-05
56.10699569999997,0.0,0.0,0.0,-8.744826370656808e-09,-1.530388728041485e-06,-2.6421194842814903e-05
56.151426000003994,0.0,0.0,0.0,-9.339819621384399e-09,-1.5229852163783404e-06,-2.6609206821529547e-05
56.19562020000012,0.0,0.0,0.0,-9.942207592707422e-09,-1.5154362927938254e-06,-2.6799628645459167e-05
56.255171800003154,0.0,0.0,0.0,-1.0551810472906344e-08,-1.507746125018436e-06,-2.6992403974094666e-05
56.29517370000394,0.0,0.0,0.0,-1.1168557552641915e-08,-1.499918479404579e-06,-2.7187479900179243e-05
56.34372900000017,0.0,0.0,0.0,-1.1792284878014741e-08,-1.4919568162451393e-06,-2.7384802206191446e-05
56.40339530000347,0.0,0.0,0.0,-1.2422821354702054e-08,-1.4838647757245347e-06,-2.7584315126137525e-05
56.45715249999921,0.0,0.0,0.0,-1.3060001222010606e-08,-1.4756461901646233e-06,-2.7785961820160876e-05
56.500506600001245,0.0,0.0,0.0,-1.3703622142009623e-08,-1.4673047499462164e-06,-2.7989684512515635e-05
56.55002329999843,0.0,0.0,0.0,-1.4353528286781153e-08,-1.4588443360108192e-06,-2.8195424341064498e-05
56.60435629999847,0.0,0.0,0.0,-1.5009525793824403e-08,-1.450268759683729e-06,-2.8403122418445846e-05
56.660356400003366,0.0,0.0,0.0,-1.567146350457197e-08,-1.441581984424594e-06,-2.86127195078201e-05
56.699201399998856,0.0,0.0,0.0,-1.6339138003188426e-08,-1.4327877473182013e-06,-2.8824155882502836e-05
56.7473433999985,0.0,0.0,0.0,-1.7012395246207858e-08,-1.423889981398941e-06,-2.9037371775246615e-05
56.80455559999973,0.0,0.0,0.0,-1.7691024589222906e-08,-1.4148925970923577e-06,-2.9252307752756185e-05
56.856521200003044,0.0,0.0,0.0,-1.8374901329286215e-08,-1.4057993682017842e-06,-2.9468904264800195e-05
56.90381850000267,0.0,0.0,0.0,-1.906381475073534e-08,-1.3966142936500876e-06,-2.968710225889313e-05
56.95181980000052,0.0,0.0,0.0,-1.975760121272131e-08,-1.3873409879090503e-06,-2.9906842911198957e-05
57.00508709999849,0.0,0.0,0.0,-2.0456094228177082e-08,-1.3779833582463896e-06,-3.0128068013790638e-05
57.04975430000195,0.0,0.0,0.0,-2.115911107712651e-08,-1.3685451741122974e-06,-3.035071993912141e-05
57.10377940000035,0.0,0.0,0.0,-2.1866500500265566e-08,-1.359030144835286e-06,-3.0574742001915676e-05
57.144926799999666,0.0,0.0,0.0,-2.257807162161527e-08,-1.349441898617472e-06,-3.0800077935764304e-05
57.20124059999944,0.0,0.0,0.0,-2.3005620263296e-05,0.007150755760491667,0.00012297766024290473
57.256957199999306,0.0,0.0,0.0,8.182574668964427e-06,0.0032571053419708238,0.00010102933539599139
57.30651729999954,0.0,0.0,0.0,-5.7025298760138265e-06,8.472761283930059e-05,7.481624572988518e-05
57.35101130000112,0.0,0.0,0.0,-1.4769825677263451e-06,-0.00019128826259285432,9.580611777092003e-05
57.40197970000008,0.0,0.0,0.0,7.90482635511271e-06,-0.0008589050086989192,7.008786975245179e-05
57.45718260000285,0.0,0.0,0.0,-4.4003352139657046e-06,0.002035937340649392,0.00010983130828777351
57.50092230000155,0.0,0.0,0.0,5.60870872258487e-07,-0.0011177884624335114,9.834826093453362e-05
57.54709520000324,0.0,0.0,0.0,-5.205450329792035e-07,0.0005294351340527442,0.00015266906004815845
57.60562600000412,0.0,0.0,0.0,9.45231531098857e-06,-0.0019708297957158746,3.1625774024079264e-06
57.65534900000057,0.0,0.0,0.0,-7.262499835861396e-06,0.0019354312597880158,6.447254959268901e-05
57.70195519999834,0.0,0.0,0.0,7.478164745083568e-06,-0.0009959820663542588,2.474760612178644e-05
57.75081560000399,0.0,0.0,0.0,1.3187502618722578e-07,0.0003173707730448487,1.698879420265707e-05
57.80616820000432,0.0,0.0,0.0,2.3758013191119134e-06,-0.0003580974690769998,3.3572586168290443e-06
57.8529458999983,0.0,0.0,0.0,-5.1685565049565015e-06,0.0006430118597780737,2.782023359204813e-05
57.89704820000043,0.0,0.0,0.0,5.826803894274453e-06,-0.0010235969102541673,7.4454017829487834e-06
57.94950429999881,0.0,0.0,0.0,1.5763219993064338e-06,-0.00011239150396985378,9.804636662930144e-06
57.99731109999993,0.0,0.0,0.0,-7.2919286227167935e-06,0.002088861790224192,1.9143410836276253e-05
58.05360820000351,0.0,0.0,0.0,1.4287505141316709e-06,-0.0002955202356233264,4.770887517311314e-05
58.097163999998884,0.0,0.0,0.0,1.2325515863112143e-06,-0.0012280680835478287,1.83272933955049e-05
58.15402500000346,0.0,0.0,0.0,-6.050416527087846e-07,0.0002425360850061286,2.7322155402565437e-05
58.1974263000011,0.0,0.0,0.0,-4.127920779490956e-06,-0.0003278972432627162,6.63690793996735e-05
58.244387099999585,0.0,0.0,0.0,2.4424855059280044e-06,0.0004297544416690503,5.549718027153494e-05
58.30135280000104,0.0,0.0,0.0,5.518552074939888e-06,-0.00026169069517520426,4.3015532594013475e-05
58.35846190000302,0.0,0.0,0.0,-2.4243311941570807e-06,0.0002933698544229479,5.0395802571738933e-05
58.40313440000318,0.0,0.0,0.0,7.335396318262913e-06,-0.0012674659184032044,3.69340081541787e-05
58.45297379999829,0.0,0.0,0.0,-6.696914363702339e-06,0.0013845226109421697,6.983175096454682e-05
58.49611320000258,0.0,0.0,0.0,2.0280315648505994e-06,-0.00030012842306581587,5.327863045757067e-05
58.548485999999684,0.0,0.0,0.0,-2.235881610377514e-06,0.001404837310609986,5.133370196668025e-05
58.60576669999864,0.0,0.0,0.0,4.481146241122713e-07,-0.0012607140464660678,6.224901310690238e-05
58.6494920000041,0.0,0.0,0.0,2.6160149107827687e-06,4.7843057916363585e-06,3.896329494670103e-05
58.70375749999948,0.0,0.0,0.0,0.00038932219769022996,-0.0032938696733112263,0.13421771610762345
58.75413249999838,0.0,0.0,0.0,0.0008411355326308575,-0.007718014233938871,0.3557542871341959
58.80570950000401,0.0,0.0,0.0,0.0012202927217268562,-0.0029624814619068213,0.577292889307388
58.850557800004026,0.0,0.0,0.0,0.0015564487996339697,0.004141505253617678,0.7995766087206192
58.906356600004074,0.0,0.0,0.0,0.0014004783093678028,0.0027860164587774957,0.9510134341456978
58.95155969999905,0.0,0.0,0.0,0.0017737796230336122,-0.003084412655746337,0.9919746721173993
58.99760750000132,0.0,0.0,0.0,0.0021611212828404128,-0.0031136740821111155,0.9328473542012973
59.05266710000433,0.0,0.0,0.0,0.001460791189954915,0.00022486845914296145,0.8573031723622205
59.099073500001396,0.0,0.0,0.0,0.002008619171048372,-0.0030982066449506897,0.7926296503911324
59.15353689999756,0.0,0.0,0.0,0.001454467026359,-0.002117020589576045,0.7228237596788203
59.201334999997925,0.0,0.0,0.0,0.0015254997169915096,-0.00015323639996851402,0.6680976495716531
59.246564499997476,0.0,0.0,0.0,0.0018684219583657508,-0.007771226956563995,0.6527551134856722
59.30390820000321,0.0,0.0,0.0,0.0016472221495347306,0.0026750045408172078,0.6402840312473966
59.34843510000064,0.0,0.0,0.0,0.0016411641244530215,0.0006394088199829786,0.6402990173824188
59.40559590000339,0.0,0.0,0.0,0.0014371696209051852,0.003968295776769953,0.6563920112970573
59.44689450000442,0.0,0.0,0.0,0.0014939441090744423,0.0004690797505672715,0.6808230498283875
59.49710900000355,0.0,0.0,0.0,0.0012970315416530372,-0.0003433293750569214,0.6995059678432205
59.553043899999466,0.0,0.0,0.0,0.002108345958600222,-0.0018152586138565903,0.6578609464646599
59.602791800003615,0.0,0.0,0.0,0.00102365654389655,0.004218938379143129,0.5365029120756399
59.65489009999874,0.0,0.0,0.0,0.000572423603859587,0.005259125780262582,0.36395635259612197
59.696740500003216,0.0,0.0,0.0,0.0005103882162322948,-0.0035144012012703475,0.19227635005715418
59.751113300000725,0.0,0.0,0.0,-0.00015766821558503704,0.013889452042653447,0.11590894973737098
59.8039088000005,0.0,0.0,0.0,0.00018392104950276498,-0.0027451011875807576,0.18730709965372278
59.85458910000307,0.0,0.0,0.0,0.000524416452985911,0.00019118475216354838,0.22092658373954172
59.89450780000334,0.0,0.0,0.0,0.000437482206449544,-0.0006478462409156877,0.22060280556360323
59.95334539999749,0.0,0.0,0.0,0.00028232592303438833,-0.00038013955414917445,0.20133622018945713
59.99585379999917,0.0,0.0,0.0,0.0002484004355365742,0.0005249136231363803,0.1835839848831186
60.05427810000401,0.0,0.0,0.0,0.00022108987958602895,-0.00046755844191639744,0.1705950034869519
60.10653699999966,0.0,0.0,0.0,0.0002107018505209165,0.0013248700437101528,0.16622771562618738
60.15244540000276,0.0,0.0,0.0,0.000170881331218254,0.0008287345937380399,0.16393617038432215
60.20332159999816,0.0,0.0,0.0,0.00025839702696746537,-0.0012607667548948944,0.15792049955783855
60.244821500004036,0.0,0.0,0.0,0.00026793673966501866,0.0004631476173175912,0.15036838234433703
60.30290640000021,0.0,0.0,0.0,0.00017970323364438175,5.413347411915388e-05,0.14199662785101702
60.35349690000294,0.0,0.0,0.0,0.0002999622707915081,-0.0017369676542876302,0.13689976346702898
60.40569169999799,0.0,0.0,0.0,0.00013368083867127545,0.003925583168623504,0.12376180575609994
60.45460289999755,0.0,0.0,0.0,0.0001969115139939864,-0.0036097063300875778,0.11485222625763133
60.505815199998324,0.0,0.0,0.0,0.00013421900313805333,0.00041740859988558215,0.1087413873869738
60.547476200001256,0.0,0.0,0.0,0.00011867849178843352,0.0006620855756534048,0.10770982491005288
60.599960999999894,0.0,0.0,0.0,5.3224971742524816e-05,0.0019259425532917615,0.11987552920435635
60.651718599998276,0.0,0.0,0.0,0.00012312092267858924,-0.002223572432510648,0.12002396059594558
60.69782950000081,0.0,0.0,0.0,0.00020612497165130935,0.00023578883836665836,0.11801618151980747
60.7456611000016,0.0,0.0,0.0,0.00017253268797614343,0.0002241643427613592,0.1160360497521664
60.80546350000077,0.0,0.0,0.0,0.0001468711964109305,-0.00027915152653266046,0.11624275404403012
60.84798769999907,0.0,0.0,0.0,0.00021223108855881025,-0.0012310043252787735,0.11729848513195582
60.89773430000059,0.0,0.0,0.0,0.00020235610064281634,0.004014378970940454,0.11958614810507742
60.95298870000261,0.0,0.0,0.0,0.00017987493042819223,-0.0030865810305845216,0.12288181235720541
60.9975345999992,0.0,0.0,0.0,0.00015947081956600088,0.0003986576220200241,0.12841368101153558
61.052962200003094,0.0,0.0,0.0,0.0002316383928477302,0.0034590527597797797,0.13644318171909003
61.10037929999817,0.0,0.0,0.0,0.000263427425365227,0.0010724629541151562,0.15625715465821965
61.15981550000288,0.0,0.0,0.0,0.00023931100496362904,-0.0012651327072900512,0.16742099704690405
61.20305680000456,0.0,0.0,0.0,0.0002644738859897551,-9.908612168462522e-05,0.19013270247301362
61.24835660000099,0.0,0.0,0.0,0.00044901373423659856,-0.004476644430873754,0.23332481932752136
61.297744199997396,0.0,0.0,0.0,0.00020768794674581173,0.010349329982458607,0.24263964584408465
