t,ax,ay,az,gx,gy,gz
0.5367791000026045,0.0,0.0,0.0,-0.002411821841381574,-0.06318960780761253,0.0003396688722323699
0.5593756000016583,0.0,0.0,0.0,0.0009319942266373375,0.003659320687151988,1.8497851614715805e-05
0.6076351000010618,0.0,0.0,0.0,9.131814436195706e-05,0.00242479249905876,0.00018288568490954597
0.6565150000024005,0.0,0.0,0.0,-1.5513454182870406e-05,-0.00011712174349690935,0.00028791353851585804
0.7066560000021127,0.0,0.0,0.0,-2.3759054407640764e-05,-0.0005704969099568054,0.00040284279610374265
0.7556216000011773,0.0,0.0,0.0,4.264350732768815e-05,0.0002912818958217801,0.00038942410553096383
0.8082162999999127,0.0,0.0,0.0,-1.2891689765491176e-05,-0.00036507163780961693,0.0003357034626715332
0.8563387000031071,0.0,0.0,0.0,9.310507546079143e-06,0.00012964692344217768,-3.739144550284227e-05
0.9080052000026626,0.0,0.0,0.0,4.109601076455252e-05,0.0004368345690676554,0.00017707527961097127
0.966689500000939,0.0,0.0,0.0,2.681642206681785e-05,0.0004291526281001909,0.0002398373092782521
1.0366099000020768,0.0,0.0,0.0,8.031658793177076e-06,0.0003299520401476435,0.00019271590335825798
1.0585935000017344,0.0,0.0,0.0,-2.3407561950024824e-05,-0.0011600930743184497,-0.00012579686403810193
1.106557300001441,0.0,0.0,0.0,9.826830721829102e-06,-3.268946924085827e-05,-0.00023668036853558602
1.1567364000002271,0.0,0.0,0.0,-4.409542342516524e-05,0.0004937915762510525,-0.00018570918593406306
1.2445705999998609,0.0,0.0,0.0,3.310126747547877e-05,0.0002492127943570432,-9.442671150511136e-05
1.2941275000011956,0.0,0.0,0.0,-7.659378096304655e-05,-0.0010494041347176885,0.00010476108799200937
1.3359942000024603,0.0,0.0,0.0,-6.290977440570163e-06,-9.714837934979218e-05,0.0003049515454262038
1.3831367000020691,0.0,0.0,0.0,0.000110034311820252,0.001061925172625221,0.00045224234391131126
1.4276300000019546,0.0,0.0,0.0,-3.345365660022286e-05,0.0005031683423671306,0.0002544969901531403
1.4804146000024048,0.0,0.0,0.0,-1.0924696278148128e-05,-0.0004248634273655245,0.00048070625165743953
1.5149463000016112,0.0,0.0,0.0,-2.738023366923234e-05,-0.00038271060272521953,0.0004087277329943741
1.563817199999903,0.0,0.0,0.0,6.400727373743197e-05,0.0005380617792159052,0.00017755454728139703
1.6148794000000635,0.0,0.0,0.0,-8.174009994464106e-05,-0.0007735843292382297,0.0002880908329609403
1.6810842000013508,0.0,0.0,0.0,5.699599587771667e-05,0.00021296671898103135,0.0003133744968282383
1.725693100001081,0.0,0.0,0.0,-3.121976101173358e-05,1.4057129364639793e-05,0.0003191964864812913
1.7766046000033384,0.0,0.0,0.0,4.351163687070522e-05,0.0003606792677742136,0.0002663888423971182
1.8168551000017032,0.0,0.0,0.0,-5.052485510147563e-06,-0.00011729938245887942,0.0003613825423769587
1.865355100002489,0.0,0.0,0.0,-2.7605157582223262e-05,0.0007010239425337676,0.00017406503380046763
1.9285238000011304,0.0,0.0,0.0,3.724989506853782e-07,-0.0001411400061146772,0.00012216305705100078
1.9631230000013602,0.0,0.0,0.0,-2.5556858697463386e-05,-0.0008084262612380003,0.0002516268325829339
2.0247322000032,0.0,0.0,0.0,2.2068441015591518e-05,-0.00016829450499877954,0.0004045131278777786
2.084508600000845,0.0,0.0,0.0,2.9513501478978142e-05,-0.00014161848811593806,0.0001123741761270673
2.136022300001059,0.0,0.0,0.0,-5.026452319958913e-06,0.00043316907048321254,0.0001500109793795213
2.19134600000325,0.0,0.0,0.0,-5.468322209950958e-05,0.0003146778117874049,0.0002686303627879315
2.227650500000891,0.0,0.0,0.0,-7.324308247830284e-05,0.0006489833218720157,0.0002585167773785296
2.2738237000012305,0.0,0.0,0.0,0.00015110153681352202,-0.0009813051792906446,0.000309327789451899
2.3191342999998596,0.0,0.0,0.0,-5.3942245123398595e-05,-0.00025741645909085203,0.00016214204954149666
2.3644673000017065,0.0,0.0,0.0,-5.266967275303307e-05,-0.00018701100318413132,0.00045269532371267323
2.4138328000008187,0.0,0.0,0.0,6.031011548029382e-06,-0.00028108791426030517,0.000313063441974238
2.4635281000009854,0.0,0.0,0.0,-5.361583152956917e-05,0.00023344863161310368,0.0002834497939331924
2.5141343000032066,0.0,0.0,0.0,4.181838790148402e-05,-0.0002613334402492813,0.00023749630745838662
2.562390000002779,0.0,0.0,0.0,4.550795313910691e-05,0.0004215816042927576,0.00029919201285695415
2.612745600003109,0.0,0.0,0.0,-4.75776124483259e-05,-0.0006130903076340771,0.00027259031300480894
2.6660308000027726,0.0,0.0,0.0,-8.014670851364908e-05,0.0003823932280120288,0.00013988643891835602
2.7147609000021475,0.0,0.0,0.0,0.00010264637448850792,0.00011565428947249968,4.4648489334543016e-05
2.7624769000030938,0.0,0.0,0.0,3.4272013162728225e-05,0.00017969995696886045,2.5302778257584594e-05
2.8133820000002743,0.0,0.0,0.0,-2.5463217998111828e-05,0.00018007887952648457,0.0005601036756670789
2.8621379000032903,0.0,0.0,0.0,-6.114120530382538e-05,0.00013314072067691692,0.00027697554128850214
2.9123842000008153,0.0,0.0,0.0,8.739616921350972e-05,-3.813597653109993e-05,0.00017375120278997542
2.963323500000115,0.0,0.0,0.0,-5.033675224584672e-05,-0.0007138801313605013,9.76394251328077e-05
3.011129800001072,0.0,0.0,0.0,-5.2236660555843e-06,-0.0001730793638733558,5.8512313463712816e-05
3.0614787000013166,0.0,0.0,0.0,5.2805400975131374e-05,-0.00028602284692902364,0.00016114078362294902
3.1132061000025715,0.0,0.0,0.0,-0.0001476404618915842,-0.00021091348227902294,0.00024895746397022764
3.163232599999901,0.0,0.0,0.0,-1.742121007185156e-05,-0.00027353016102537274,0.00016591529354019637
3.212066500000219,0.0,0.0,0.0,6.416155268907658e-05,0.00036626989754330147,0.00017981017789731068
3.260951300002489,0.0,0.0,0.0,8.555356102172743e-05,-0.00028325030550706157,0.00012904499649727243
3.3123049000023457,0.0,0.0,0.0,-5.802690417232432e-05,-0.00015584495762512414,0.00011857329240571998
3.3640706000005594,0.0,0.0,0.0,2.7162027999809523e-06,0.0014658513761241587,0.0003216225472110329
3.4135306000025594,0.0,0.0,0.0,-4.576631226213882e-05,-7.167010113022028e-05,0.00031126936904044727
3.4619053000023996,0.0,0.0,0.0,6.198309504874864e-05,-0.0006055108922650714,0.0002298487810521475
3.511777300001995,0.0,0.0,0.0,9.66809281827163e-06,-0.00032705309651524236,0.00041665316260557946
3.562522000000172,0.0,0.0,0.0,2.4910486275863643e-06,-0.0003861947290448888,0.0003416431771741681
3.6141317000001436,0.0,0.0,0.0,4.66268537001042e-05,0.00035170212167607597,0.0003542902948471953
3.6626064000010956,0.0,0.0,0.0,-8.620333705652969e-05,0.0009662860481802256,0.0003387190043573364
3.712187900000572,0.0,0.0,0.0,-5.443108330430782e-05,-0.0013257259032965988,0.00026403895886346977
3.7622415000005276,0.0,0.0,0.0,3.821752166318989e-05,0.00012977277603984507,0.00010178377578180064
3.8140105000020412,0.0,0.0,0.0,3.872110874149954e-05,0.000203896624268425,-1.82020863853401e-05
3.862712600002851,0.0,0.0,0.0,4.270670365315625e-05,-0.00025711606624049366,-5.6890609734356544e-05
3.9124832000015886,0.0,0.0,0.0,-6.388306846641426e-05,-0.00011222211930718106,-6.937761409814e-05
3.9608850000004168,0.0,0.0,0.0,-2.9877030408478048e-05,2.9045428644930383e-05,7.725634424064651e-05
4.013451100003294,0.0,0.0,0.0,7.803460917832994e-05,0.0008955616063436892,0.00024419934457462573
4.062237500002084,0.0,0.0,0.0,-1.1040507127080902e-05,-0.00035426750979425457,0.00041769683276137327
4.111786299999949,0.0,0.0,0.0,8.298765182546779e-07,-0.00057367544397965,-0.00013358793048194253
4.16237060000276,0.0,0.0,0.0,-3.6204538488700524e-05,-0.00022597707697579386,-9.96550521543182e-05
4.212873200001923,0.0,0.0,0.0,-4.7579673477292055e-05,0.00010296950078378655,8.64604980133069e-05
4.262360600001557,0.0,0.0,0.0,3.8368643447941036e-05,0.00024970171900731686,0.00017207138851333786
4.312268400000903,0.0,0.0,0.0,0.00010023313312078536,-0.0004853309695206444,0.00025524601628123107
4.361977399999887,0.0,0.0,0.0,-5.337635192268443e-05,-9.791846059524653e-05,0.0003318602888909396
4.411551200002577,0.0,0.0,0.0,3.333436297205606e-05,0.0004308009815441927,3.947812322909086e-05
4.467750700001488,0.0,0.0,0.0,-6.5388487515723015e-06,0.00010759168274791569,0.00023055584359786376
4.5125641000013275,0.0,0.0,0.0,-7.046906508899401e-05,-0.00015477582771897301,2.080705602961347e-05
4.5616953000026115,0.0,0.0,0.0,1.6174717098599805e-05,-6.549562181040229e-05,7.846600124022541e-05
4.61318250000113,0.0,0.0,0.0,8.670577880744349e-06,-0.0003233126012915916,0.00015960348521966607
4.66489360000196,0.0,0.0,0.0,-6.721008200969685e-05,0.00027468787235147455,0.00012842451804884197
4.715318300000945,0.0,0.0,0.0,6.287906844652904e-05,-8.299065823388979e-05,-3.5628642092527895e-05
4.762562400002935,0.0,0.0,0.0,-3.956109844198766e-05,-6.252948997784158e-05,0.00011542737186673217
4.813297100001364,0.0,0.0,0.0,-2.4226479991356147e-06,-5.799707317356418e-05,-0.00022646696278299207
4.863539200003288,0.0,0.0,0.0,4.208920560721583e-06,0.00030244415116125514,-0.000477219707717027
4.911777400000574,0.0,0.0,0.0,7.623196212892819e-05,-0.0008657292008943519,-0.00021729825218689213
4.962064700001065,0.0,0.0,0.0,4.164395437375203e-05,0.0005940596981414283,-0.000331638021598819
5.011169100002007,0.0,0.0,0.0,-0.00011368432789195159,0.00012433639377621038,-0.0001930615265647151
5.062817200003337,0.0,0.0,0.0,-1.9408465073512688e-05,7.1638924473897e-05,-0.00011643548212143185
5.1128626000027,0.0,0.0,0.0,8.096174216003589e-05,0.0003973726211133219,0.00016675534002748657
5.161530800000037,0.0,0.0,0.0,-9.327677747280489e-06,-0.0006725082371207042,0.00033891894852815225
5.2121051000031,0.0,0.0,0.0,-6.959192939771132e-05,0.0007057478815643562,0.0002294839655814847
5.264284300003055,0.0,0.0,0.0,2.9535610923562817e-05,-0.0007594928644708373,0.0003634860304175045
5.31378400000176,0.0,0.0,0.0,-1.1257248224966637e-05,0.0005677590717175134,0.0003514181390564831
5.361004700000194,0.0,0.0,0.0,4.913620784665186e-05,3.985701371179966e-05,0.0003485976450054494
5.4130231000017375,0.0,0.0,0.0,-5.398148812439153e-05,-0.000565120352218093,0.00034638836150760477
5.462498800003232,0.0,0.0,0.0,-2.0538259206617527e-06,9.082944439817349e-05,0.0003042114274243422
5.513456900000165,0.0,0.0,0.0,-2.4041384036474722e-05,-0.00012249685736571067,0.00018349578840653433
5.563058800002182,0.0,0.0,0.0,7.355875998370958e-06,2.9877417662505975e-05,0.0002279893280870902
5.615350600000966,0.0,0.0,0.0,3.993167707737164e-05,-0.00022660057788194426,0.00025234864963261946
5.664217600002303,0.0,0.0,0.0,-5.562466393681538e-05,0.0001210750964810228,0.00019009329203132586
5.720448000000033,0.0,0.0,0.0,7.475785328634398e-05,0.00029683615647657543,0.00028821545503100753
5.764584600001399,0.0,0.0,0.0,-4.453230705965138e-05,-0.0005786122428703159,0.00030021472989886523
5.813101900002948,0.0,0.0,0.0,2.5979023469514943e-05,1.4444686977417883e-05,0.000234744228319155
5.870304700001725,0.0,0.0,0.0,3.0099023738226097e-05,0.0005696478619053354,0.00030671710310094567
5.923337600001105,0.0,0.0,0.0,-9.043844103498077e-05,-0.00044520049131802476,0.0001053794118940257
5.972357600003306,0.0,0.0,0.0,-1.927946452821516e-06,-0.00017677690384473827,8.608724219119968e-05
6.020001700002467,0.0,0.0,0.0,3.0464714557149167e-05,0.0010507397657595128,0.00014899115238563017
6.068764600000577,0.0,0.0,0.0,-3.5838646667194095e-05,-0.0009861182054256201,-9.557013340864461e-05
6.122679000000062,0.0,0.0,0.0,8.099327716964879e-05,-9.68405056526772e-05,-0.00010165132794992228
6.175542300003144,0.0,0.0,0.0,-8.69571096353928e-05,0.0005630893373724241,1.944172403721396e-05
6.221916000002238,0.0,0.0,0.0,0.00011764180008202195,-0.0005560931647375092,-0.0001672806799959632
6.27522350000072,0.0,0.0,0.0,-5.604582876637134e-06,0.0006875374989786304,-0.00017437049928486746
6.322822300000553,0.0,0.0,0.0,-3.507695833074582e-05,0.0003834682582272701,-5.287772722167199e-05
6.372518500000297,0.0,0.0,0.0,7.749161906778202e-05,-0.0004220391170434741,-5.254803898265123e-08
6.421197100000427,0.0,0.0,0.0,-3.6120082766088206e-05,-0.0002785427536361688,-1.9031273855213495e-05
6.467455500001961,0.0,0.0,0.0,6.273639422373007e-05,-0.00018420732452073324,-0.00022858780204555184
6.521827900000062,0.0,0.0,0.0,-7.097759563485177e-05,0.0006593607536656645,-1.8645836604380294e-05
6.5709937999999966,0.0,0.0,0.0,-2.4828692432659953e-05,0.00025952106119128936,0.0006140020011484719
6.622489800000039,0.0,0.0,0.0,1.410826128282135e-05,-0.000415435601043561,0.000524382680695116
6.669518000002427,0.0,0.0,0.0,1.2380749298660091e-05,-0.0004998774983672966,0.00043876645380974005
6.721237200003088,0.0,0.0,0.0,2.5877987442112543e-05,0.0001797933731658534,0.00021097179478061866
6.76313410000148,0.0,0.0,0.0,-4.1828504678454246e-05,2.819480715445497e-05,0.00025291133444670983
6.814444500003447,0.0,0.0,0.0,6.002913130864622e-06,0.00011597726597692098,0.0002976447808759416
6.862951500002964,0.0,0.0,0.0,4.672688557519706e-05,-0.00017053879902422176,-1.5081313279230641e-05
6.9137715000033495,0.0,0.0,0.0,-2.2581781490464432e-05,0.00019104422271732735,-7.437950245439848e-05
6.962719000002835,0.0,0.0,0.0,-7.95546219943861e-05,-0.00020318460556755983,0.00022719016384316646
7.0118188000014925,0.0,0.0,0.0,5.4196911885405206e-05,-0.00021179009863511115,-1.7281953703963376e-05
7.062393600001087,0.0,0.0,0.0,-4.447258883891695e-05,-0.00013224200983096067,2.203235905525673e-05
7.112408500001038,0.0,0.0,0.0,5.2403686945423376e-05,7.386639405534909e-05,-0.00014697320514865016
7.163417300002038,0.0,0.0,0.0,4.064060064428501e-05,0.0002326420899044013,-0.0002575124016775658
7.2120320000030915,0.0,0.0,0.0,-8.508139539993642e-06,-5.037152808646548e-05,-7.618314266913928e-05
7.263711100000364,0.0,0.0,0.0,1.3129277168702178e-05,-0.00015971063993028796,-0.00016444806890087983
7.312829100003,0.0,0.0,0.0,-8.441040636571011e-05,3.393752184267046e-05,-8.656603586690718e-05
7.362728800002515,0.0,0.0,0.0,2.761212361861762e-05,0.00017599721296574964,-0.00018581472455345504
7.411523100003251,0.0,0.0,0.0,-2.269486911894465e-05,-0.00017550467022220135,-0.0003837276887709982
7.462419800001953,0.0,0.0,0.0,-2.9773756938156053e-05,-0.0001625036933233036,-0.00033568624500758147
7.511213100002351,0.0,0.0,0.0,6.432375265305575e-05,8.256247020933733e-05,-0.0002494575967734792
7.561048999999912,0.0,0.0,0.0,-2.650931990001761e-05,0.00030517002286471295,-0.0002987183004970811
7.61391310000181,0.0,0.0,0.0,-1.1373931764389171e-06,-0.0002440031369928153,-0.0003951591149155517
7.670301300000574,0.0,0.0,0.0,2.391813365524856e-05,-0.0002671940998066225,-0.0003267792144149922
7.722114400003193,0.0,0.0,0.0,6.448923111689747e-05,0.00027281492542592396,-0.000287971111658112
7.762271999999939,0.0,0.0,0.0,-5.475174427020113e-05,6.9047050113536945e-06,-0.0002712269712665167
7.81381440000041,0.0,0.0,0.0,-2.4444073337026622e-05,5.7166541290328506e-05,-0.0003359596706815708
7.863506000001507,0.0,0.0,0.0,4.7974564368866546e-05,-0.00018807869200707306,0.00011574700503315136
7.912936300002912,0.0,0.0,0.0,-1.3432036360735982e-05,0.0006428310106988419,0.0002767157542284663
7.961413100001664,0.0,0.0,0.0,-1.854567265156848e-05,-0.0004265689324970776,0.00024278375721190328
8.01293860000078,0.0,0.0,0.0,3.055834255703168e-05,0.0003335380658972632,0.0003241641743689756
8.062371800002438,0.0,0.0,0.0,-3.269509600520529e-05,0.0005254469874952828,0.00030275234461613873
8.112634400000388,0.0,0.0,0.0,4.505534875795989e-05,5.893555530956322e-05,0.0003324315737537867
8.161065500000404,0.0,0.0,0.0,-4.559480867939816e-05,-0.000780384023170552,0.0004178876047840444
8.211841899999854,0.0,0.0,0.0,8.374366323396407e-05,0.00036873703688538706,0.0002983961989371815
8.26245850000123,0.0,0.0,0.0,-2.156604844470638e-05,-0.00030038114661185054,0.00034596858397169185
8.313994700001786,0.0,0.0,0.0,-1.9281292499540068e-06,-0.00020170870806903793,0.0003354136552639642
8.363387299999886,0.0,0.0,0.0,-3.9488457629298035e-05,0.0002874836272504749,3.0504223668583053e-05
8.411930100002792,0.0,0.0,0.0,-2.881426843392514e-05,7.372406068508264e-05,-6.232182167893771e-05
8.462161800001923,0.0,0.0,0.0,0.00012391463931915066,8.21763940393198e-05,-6.885292892381172e-05
8.51365000000078,0.0,0.0,0.0,-0.0001312000795606101,-0.00012460003306657567,-7.183828509942696e-05
8.561512900003436,0.0,0.0,0.0,3.108054701590523e-05,0.00011812373362641201,-1.1055114229128448e-06
8.615293300001213,0.0,0.0,0.0,-3.98289287838739e-05,-0.00033631705557000095,-7.793423390223595e-05
8.66888420000032,0.0,0.0,0.0,9.290205507763111e-05,9.888643936429924e-05,-6.539465244097876e-05
8.71454740000263,0.0,0.0,0.0,-6.524416613787471e-05,-0.00029070501535526094,-0.00011223482883555891
8.772403300001315,0.0,0.0,0.0,9.46182697330556e-05,6.424325359799251e-05,-0.00010229381040176337
8.813104700002441,0.0,0.0,0.0,-4.8464633737797526e-05,0.00023920610646051727,-0.0001765560464565415
8.861901900003431,0.0,0.0,0.0,-8.821942188812367e-05,-2.885257730690182e-05,-0.00033069584141137795
8.91404660000262,0.0,0.0,0.0,6.038165572870367e-05,-0.00012338548545220987,-0.00028354720954686075
8.962024100001145,0.0,0.0,0.0,-5.697902684535168e-05,0.00023547266325143785,-0.0002955027909260336
9.01445810000223,0.0,0.0,0.0,2.2501955542183678e-05,-0.0001473540057086683,0.00029068759794322383
9.061822000003303,0.0,0.0,0.0,-4.7388635063208375e-05,0.0001455818300118359,3.475188604756435e-05
9.111675500000274,0.0,0.0,0.0,6.133212569405379e-05,0.00015097098599621574,0.00010433178185760825
9.161873500001093,0.0,0.0,0.0,-2.835031809045634e-05,-0.00010083958063170049,-0.0002063630711545041
9.212307600002532,0.0,0.0,0.0,4.206981479092358e-05,-0.00034382766352060516,-0.0002738629407312022
9.26396670000031,0.0,0.0,0.0,-5.795931089072776e-05,-0.0002818894455414045,-0.00037041953128203885
9.31308280000303,0.0,0.0,0.0,0.00012598599775297603,6.431441133150619e-05,-0.0002011326224686709
9.362526400000206,0.0,0.0,0.0,-0.00010838285063409167,0.0002497593986610998,-0.00023361855701256042
9.41110850000041,0.0,0.0,0.0,-5.795802638732847e-05,9.015732646316939e-05,-0.0002553126740936023
9.462366900002962,0.0,0.0,0.0,1.559225842831574e-05,0.00026502388128467916,-3.442888634760991e-05
9.512673700002779,0.0,0.0,0.0,2.1979590031514425e-05,-0.00012873595350660456,-2.5292572827677244e-05
9.564387800000986,0.0,0.0,0.0,5.674291746522382e-05,-0.0002066025253427538,-0.00011398774746258425
9.612630600000557,0.0,0.0,0.0,-4.676408720346778e-05,1.231281660366181e-05,-0.00018475969277312928
9.668137300002854,0.0,0.0,0.0,-7.179972974985993e-05,0.0005946252045576307,-0.00016190887076845246
9.713695500002359,0.0,0.0,0.0,7.355874308023283e-05,0.00037952975201838526,-0.00014290461451479486
9.762553399999888,0.0,0.0,0.0,-1.2216638766932077e-05,-5.794348960231687e-05,-0.0002379996985462335
9.815739500001655,0.0,0.0,0.0,-1.3325134925824957e-05,-0.0005508637880302622,-0.0002640030356393935
9.870681200001854,0.0,0.0,0.0,-6.681696634542855e-05,0.0006104318648984298,-0.0002508620260796317
9.91249020000032,0.0,0.0,0.0,6.11836155397942e-05,0.00012865780217763753,-0.00019358895430014692
9.96213550000175,0.0,0.0,0.0,-3.6472302557624658e-06,-0.00046407978460782603,0.00012059043875175439
10.015749900001538,0.0,0.0,0.0,-2.5672350651556064e-05,-0.0002523328452105364,8.252170173963043e-05
10.063678000002255,0.0,0.0,0.0,2.1065156245414436e-05,2.259482954398123e-05,-9.602533583187567e-05
10.116321000001335,0.0,0.0,0.0,6.864858080276195e-05,-0.000540335016680239,-0.0003305909927917636
10.163795100001153,0.0,0.0,0.0,-5.5071910271980204e-05,0.00038126239686610524,-0.00018539500260038113
10.214139200001227,0.0,0.0,0.0,-1.3737613034863627e-06,0.00015176621961132482,-8.769827623923167e-05
10.263761700000032,0.0,0.0,0.0,-4.578857412797005e-05,-0.00011294219220463718,-0.00014452009757110685
10.312851200000296,0.0,0.0,0.0,0.00016660191596500488,0.0005910477302326256,-0.00019861620974896577
10.362318200001027,0.0,0.0,0.0,-9.076952953043058e-05,-0.00011506626231735938,-0.00011042148480240974
10.413104300001578,0.0,0.0,0.0,2.1667226617365994e-05,-0.00021045555481798015,1.640059949726128e-06
10.462405300000682,0.0,0.0,0.0,6.723606071279034e-05,0.00014406983643435898,-5.290737816546361e-06
10.513067600000795,0.0,0.0,0.0,-9.300642488994924e-05,0.00030624995266381684,-2.4362416504000317e-05
10.563230000003387,0.0,0.0,0.0,-3.3636144753169515e-05,0.0002440436398371397,-4.2675485809038126e-05
10.614550500002224,0.0,0.0,0.0,0.00013902073210083458,-0.0002302501508824461,-0.0003332560617837684
10.666294800001197,0.0,0.0,0.0,-8.093325431236757e-05,-0.00021939844078115928,-0.00021191819151755622
10.712409499999922,0.0,0.0,0.0,-6.513201889953244e-05,-0.0005247105291932547,-7.707704952543427e-05
10.762860200000432,0.0,0.0,0.0,6.904092925738753e-05,0.0001184676085649409,0.00030898181950092133
10.814391500000056,0.0,0.0,0.0,-2.3665337293207116e-06,-0.0003796328742830275,0.0004761286576891936
10.865202000000863,0.0,0.0,0.0,-2.0901387134580468e-05,0.0005668994558222219,-9.995706796136405e-05
10.922435500000574,0.0,0.0,0.0,9.64929498832986e-05,-0.00045261754356693874,-0.00024297947203031657
10.964000400002988,0.0,0.0,0.0,-0.00013377012599748725,0.0007351693862277214,-0.0002842797584215379
11.013569600003393,0.0,0.0,0.0,1.5831872118318455e-05,-5.4605911776514624e-05,-2.3912542570466454e-05
11.06365850000293,0.0,0.0,0.0,-3.9069255337741915e-06,-0.0005650453118131696,-0.000501366349724334
11.114230099999986,0.0,0.0,0.0,9.69771264884495e-06,-0.00022341404973733495,-0.00018472994800948663
11.162549300002865,0.0,0.0,0.0,-1.0293821818019806e-05,-1.6656995943608323e-05,-0.00019617512960759154
11.213526400002593,0.0,0.0,0.0,0.00010804307036742361,0.00034048289090932133,-0.0004882212627912055
11.2662072000021,0.0,0.0,0.0,-3.1014779792537974e-05,0.00010604785089785479,6.414157330809112e-06
11.322572500001115,0.0,0.0,0.0,-0.00012544191860895033,0.0010003236985937922,2.71020321539873e-05
11.367839200000162,0.0,0.0,0.0,9.325733908644418e-05,-0.0007638825939373478,-1.795486415949688e-05
11.41417260000162,0.0,0.0,0.0,8.140685980584588e-06,-0.0005923109026361173,-0.00012799887286513102
11.463568800001667,0.0,0.0,0.0,8.774551220765489e-06,0.0008317639611134302,-7.927616785056581e-05
11.513944900001661,0.0,0.0,0.0,4.669625267888412e-05,0.00034917653684426146,0.00015368162385473902
11.562608500000351,0.0,0.0,0.0,6.198147122565983e-05,-0.0004765773544928995,9.778872885549064e-05
11.614328000003297,0.0,0.0,0.0,-8.27444207298693e-05,-0.00031823574629056574,5.558781863226326e-06
11.671250400002464,0.0,0.0,0.0,-4.825455953976932e-05,-0.0002559521696536374,6.462016164914816e-05
11.713538300002256,0.0,0.0,0.0,-5.8076039181216315e-06,-0.00011610187139052653,0.00016520106595134263
11.764734100001078,0.0,0.0,0.0,7.267790817843347e-05,0.00033734460204375366,9.165246656706112e-05
11.812342300003365,0.0,0.0,0.0,-9.002575974549103e-05,-1.2724429957911028e-05,-0.00010799557083109601
11.864739000000554,0.0,0.0,0.0,7.04408753706927e-05,-0.00015572572257653615,0.00010167486143082178
11.914466700000048,0.0,0.0,0.0,7.3827207580156165e-06,0.00023317432247167913,-7.074811101690116e-05
11.96294510000007,0.0,0.0,0.0,-6.81694096805469e-05,0.0011807908123395573,0.00017808442278001993
12.018358700002864,0.0,0.0,0.0,6.198216281948147e-05,-0.0011028477761200108,-0.0005836917068962513
12.061858400000347,0.0,0.0,0.0,3.794010020647146e-05,0.0003153203947476986,-1.5136612103321944e-05
12.112430200002564,0.0,0.0,0.0,-1.2399476238482465e-05,0.0002690215783451756,-0.00016041936835451662
12.163362600000255,0.0,0.0,0.0,-1.4287951215748015e-05,-0.0011274047208340004,-0.00030595555983579746
12.211432700001751,0.0,0.0,0.0,-5.73464029360236e-06,-0.00011522955265933512,-0.0002492756450989732
12.262962200002221,0.0,0.0,0.0,-4.231062720206268e-05,0.0002574525666971265,-0.0004204054768448955
12.313607600000978,0.0,0.0,0.0,6.408500721880141e-05,-3.360047797027921e-05,-0.0003514106055512599
12.364630100000795,0.0,0.0,0.0,-3.094280779333295e-05,0.0003585581131325123,-0.00030768549836475466
12.414010300002701,0.0,0.0,0.0,9.675251552210466e-05,0.00032021505156329107,0.0002157080156652331
12.464716600003158,0.0,0.0,0.0,-4.632265803829583e-05,-6.804674435224467e-05,8.524117146613164e-05
12.514100400003372,0.0,0.0,0.0,2.1916775351148535e-05,0.00012643268051664038,-0.0001548581779190654
12.562402100000327,0.0,0.0,0.0,-1.5887842186144847e-05,-0.0007793178755562565,-0.00032091330096303095
12.613649700000678,0.0,0.0,0.0,-0.00015759877091196895,-0.00011067803673938843,-0.00032590033132471767
12.669687000001431,0.0,0.0,0.0,9.84421051786113e-05,0.0007052086121121363,8.183080985705204e-06
12.71333660000164,0.0,0.0,0.0,-7.080839594484088e-05,-0.0005185038259478231,0.00029985419700971974
12.76323709999997,0.0,0.0,0.0,-1.2320569882216157e-05,0.0006389931426169108,-5.008102574752756e-05
12.81172730000253,0.0,0.0,0.0,0.0001425892096914484,-0.0005812109514261766,-4.521968262564474e-05
12.863006600000517,0.0,0.0,0.0,-0.00010600608992418426,0.00032247445679335325,-1.44804835675126e-05
12.913434300000517,0.0,0.0,0.0,7.809469386759694e-05,0.0011766176413239232,-0.00011627117697066281
12.962235100003454,0.0,0.0,0.0,-5.239981951469064e-06,-0.0013112542354764127,-0.00012020167437597535
13.01300220000121,0.0,0.0,0.0,-1.968906599630159e-05,-1.570687466712804e-05,1.2315836865688299e-05
13.064274200001819,0.0,0.0,0.0,-1.8609135490535964e-05,-0.00011858532766598598,0.00013036381084966246
13.112543800001731,0.0,0.0,0.0,-3.851080727561624e-05,8.572106793135377e-05,-0.00026757071907858895
13.164611900003365,0.0,0.0,0.0,5.273018507405261e-06,-0.0004839816437637835,-0.00014669055817193732
13.215352100000018,0.0,0.0,0.0,5.546549440208131e-06,0.0004996309612567489,-0.00012456335409406446
13.262534700003016,0.0,0.0,0.0,-1.80203076049457e-05,0.00015598590384777254,-6.557862898025574e-06
13.313151000002108,0.0,0.0,0.0,7.93690397168536e-05,-0.0005042740218151849,3.022571275175549e-08
13.36232630000086,0.0,0.0,0.0,-6.095321276487829e-05,0.0007523244184804863,3.980876608676743e-05
13.412888900002145,0.0,0.0,0.0,4.989426306841534e-05,0.0004012667317026767,-0.0006094454685750346
13.46257080000214,0.0,0.0,0.0,4.770124033596987e-05,-0.0005450286580841627,-0.00018030609950533865
13.514008200003445,0.0,0.0,0.0,-7.617822501835692e-05,0.0007985494464170841,0.00022726015044847718
13.562685000000783,0.0,0.0,0.0,5.067184353407992e-05,-0.0008065874043439832,0.00014711448453317617
13.61671330000172,0.0,0.0,0.0,-0.0001339370673705072,0.0003942804389717963,0.00019771244859232318
13.670396800000162,0.0,0.0,0.0,9.575734685341947e-05,-0.00042129440976334143,-0.00018396207338784956
13.71441870000126,0.0,0.0,0.0,4.463161352856441e-05,-0.0005636837382469793,-4.545236493927863e-05
13.763561800002208,0.0,0.0,0.0,-3.630078335916277e-05,-3.546322927615343e-05,0.00020217167177077495
13.815579200003413,0.0,0.0,0.0,3.818036698009442e-05,0.0007016196965001207,-0.00020936377282893866
13.865181100001791,0.0,0.0,0.0,1.329073913800458e-05,6.782593852827473e-05,-0.00019060615826633692
13.912413600002765,0.0,0.0,0.0,-4.401329316614537e-05,-7.540290883854887e-05,-0.0002965771719174964
13.963391200002661,0.0,0.0,0.0,-4.8944750837019265e-05,-0.00032364778756204134,-0.00026947384213384985
14.015152600000874,0.0,0.0,0.0,-1.901499840788592e-05,8.215390887697453e-05,-0.00037412124119709826
14.066610500001843,0.0,0.0,0.0,-2.656132994459866e-05,-8.499366788477e-05,-0.00018160111672214235
14.120299500002147,0.0,0.0,0.0,4.2336391103433265e-05,-0.0003159737265644226,-0.0002674869130266926
14.164878200001112,0.0,0.0,0.0,-2.852586722101761e-05,5.445779069004986e-05,-2.8208996997861358e-06
14.212973300000158,0.0,0.0,0.0,-2.09029589850967e-06,0.00010374065260588955,-4.124933855498078e-05
14.263662400000612,0.0,0.0,0.0,9.260576773884252e-05,0.0007131971939091143,-0.00018457846683541177
14.312928200000897,0.0,0.0,0.0,-0.0001347010726947369,-0.00022541719953590397,-0.00016086520542142875
14.363508900001762,0.0,0.0,0.0,5.1449817607526036e-05,-0.00027006319460561116,-0.00023224576254875245
14.411954800001695,0.0,0.0,0.0,-8.492065592811015e-08,4.1920391787041244e-05,-0.00022784942332243876
14.46238060000178,0.0,0.0,0.0,-3.137884176145292e-05,-0.00011631162263960114,-8.415273872697525e-05
14.513195800001995,0.0,0.0,0.0,0.00013460735080028362,-0.00013031347570830617,1.1239832058174968e-05
14.563822400003119,0.0,0.0,0.0,-5.310874086101958e-05,0.0002621692243606794,-5.261677659133882e-05
14.613201600001048,0.0,0.0,0.0,-2.4100957131988114e-05,0.0006660085258597359,-0.00020077711149731872
14.670299700002943,0.0,0.0,0.0,2.3610674494608165e-05,-0.0004964221962113265,4.8468503628103574e-05
14.713854800000263,0.0,0.0,0.0,-6.464074174119977e-05,-0.00012957373742533292,-0.00010122724688856432
14.76383750000241,0.0,0.0,0.0,3.104168247410615e-05,0.00027313584206297743,-0.00019752354575178427
14.813784900001338,0.0,0.0,0.0,6.4617111778865586e-06,-0.000666345213188769,-0.0001685714987213977
14.861963300001662,0.0,0.0,0.0,4.474990207562409e-05,0.0007257958340950383,-0.00017340774910086542
14.914507000001322,0.0,0.0,0.0,-5.585010382957822e-05,-0.00044861995618442193,-0.0001874991819166198
14.962036800003261,0.0,0.0,0.0,6.966158033232947e-05,0.0005451335635702755,-7.703150613315701e-05
15.020470900002692,0.0,0.0,0.0,1.0122931692607442e-05,3.296890241156052e-05,-3.0744003366780896e-05
15.068545300000551,0.0,0.0,0.0,-3.463285831362149e-05,-0.0003293816179065966,-1.154749446486109e-06
15.120704600001773,0.0,0.0,0.0,1.855342405772299e-05,-0.0005374047338733102,-0.00014048794516277981
15.166885000002367,0.0,0.0,0.0,9.242791243200792e-05,0.0006623051995759165,-8.625037884100984e-05
15.215968800002884,0.0,0.0,0.0,-0.00011845348189980623,-4.0466688145876127e-05,-0.00021994604631626137
15.26967980000336,0.0,0.0,0.0,-1.0533128839718556e-05,-0.0004497286633231008,-0.00015506907093270868
15.313307300002634,0.0,0.0,0.0,-3.372579025284764e-05,-0.00038508073690280873,-8.817540376010498e-05
15.363454800000909,0.0,0.0,0.0,-2.703723113066853e-05,0.0002667806124571619,-0.000164579086143989
15.413646400000289,0.0,0.0,0.0,-6.440153048442936e-05,-1.5084908758662114e-05,-0.0001248697341772495
15.463646100000915,0.0,0.0,0.0,-7.356950595972164e-05,0.00015770837665240344,-0.00022717042586324528
15.513517100000172,0.0,0.0,0.0,0.00010729473978802581,-0.00040699495382680057,-0.000361913818064915
15.564901900001132,0.0,0.0,0.0,3.8982790050604135e-05,0.00034450494751440226,-0.00015817967723640806
15.617723400002433,0.0,0.0,0.0,1.6035928291092631e-06,0.00022445560102883486,-0.0003253996590423697
15.665626000001794,0.0,0.0,0.0,-1.2938966570657521e-05,0.0003500367914234353,-0.000293914487113758
15.71212210000158,0.0,0.0,0.0,-4.9097752257121735e-05,-0.000252043488347514,-0.00020120007685767708
15.763661900000443,0.0,0.0,0.0,0.00010058860063408279,0.00013021421601299872,-0.0002530768893908684
15.811389800001052,0.0,0.0,0.0,-7.216172233601715e-05,0.0002594967194414708,-0.00013291526872569106
15.861870600001566,0.0,0.0,0.0,0.00010205634135396124,-0.00015130031236823798,-0.00016214244046771893
15.912644600000931,0.0,0.0,0.0,-2.540586975299744e-05,-0.0004156733525701538,-0.00010973524109525905
15.962540399999853,0.0,0.0,0.0,-0.0001087729501200606,-0.0005620981487562416,-7.659813234840918e-05
16.01356820000001,0.0,0.0,0.0,0.0001251619750830353,0.0004048308422021183,4.6599629546427784e-05
16.060932100001082,0.0,0.0,0.0,-5.935105760874421e-05,0.00023406918092000098,0.000203275759754561
16.111336800000572,0.0,0.0,0.0,2.4593953009167207e-05,-0.000216424473254973,-1.7153983533536552e-05
16.16167510000014,0.0,0.0,0.0,2.29796022938398e-05,-5.7322045809187706e-05,3.267797989360047e-05
16.212721100000635,0.0,0.0,0.0,-9.93556113272016e-06,0.00010083030348528208,9.490351246839008e-05
16.262414300003,0.0,0.0,0.0,-2.9489269884770417e-05,-0.00011767671882590222,-1.862626152490361e-05
16.311634400000912,0.0,0.0,0.0,6.0240888059470476e-05,0.00022408666364849724,-0.00015160776373552358
16.36227130000043,0.0,0.0,0.0,-3.4494120780727324e-05,0.00045701400762075234,-0.0003435160411156892
16.412251100002322,0.0,0.0,0.0,-3.119506470633958e-05,-0.0006247251936243615,-0.0005353454753640439
16.462489800000185,0.0,0.0,0.0,8.773403144497244e-05,-0.00010962415667069135,-0.0003320703564886155
16.512157400000433,0.0,0.0,0.0,-4.372756201706236e-05,2.9612665567328454e-05,-0.0004547175941411746
16.56180850000237,0.0,0.0,0.0,-4.351657024236264e-05,-0.0002178158369516101,-0.0004356291403902023
16.612797700003284,0.0,0.0,0.0,2.9132572405927817e-05,0.0005739557453090585,-0.00016702041089537261
16.665165700000216,0.0,0.0,0.0,-5.5034747547955316e-05,-0.0002410896994554623,-7.918628777089728e-05
16.712091900000814,0.0,0.0,0.0,-7.69518456036466e-06,-0.00027744004922351545,0.00018942398242793323
16.764497200001642,0.0,0.0,0.0,0.000151917754989825,0.0007281210331936663,0.0005498494825924853
16.81203540000206,0.0,0.0,0.0,-5.403946349792458e-05,-0.00016760620075295673,0.00035112888367047634
16.862833900002443,0.0,0.0,0.0,-1.3587397807096983e-05,0.00011541650152585,0.00025612197795161053
16.912377300002845,0.0,0.0,0.0,-2.303329583289769e-06,-0.00016379664040814377,2.9561463321781566e-05
16.962074200000643,0.0,0.0,0.0,-5.5048235010506e-05,-9.705910066769093e-05,7.629345549658873e-05
17.01253970000107,0.0,0.0,0.0,9.014140660979281e-05,-7.59430041629486e-06,2.1373046822308675e-05
17.062794400000712,0.0,0.0,0.0,-9.149100996829828e-05,0.0004140315062174329,9.764909313355555e-05
17.1108011000033,0.0,0.0,0.0,-1.7177134443240078e-05,-0.00039702087345904244,0.00016672099126336114
17.163206100001844,0.0,0.0,0.0,9.296360321294931e-05,-0.00028175378440171593,0.00011914696548516457
17.211081900000863,0.0,0.0,0.0,3.900577236357366e-06,0.0002487889757874817,0.00015931950848850588
17.2617659000025,0.0,0.0,0.0,-3.9209266915544886e-05,-3.196601047530713e-05,0.00021925981380532613
17.31964120000339,0.0,0.0,0.0,-2.4491698468964805e-05,0.0002160520802289967,-0.0003842604481566857
17.364745300001232,0.0,0.0,0.0,2.623521590346434e-05,-0.00021478550321423737,-0.000430669681012802
17.412650199999916,0.0,0.0,0.0,4.053721299296484e-05,-0.00019586487090439777,-2.194887119483477e-05
17.462023700001737,0.0,0.0,0.0,-7.112701851117076e-05,0.00025089408106348675,2.1488617981422628e-05
17.512391400003253,0.0,0.0,0.0,0.00010457391957470561,-0.0008745047651732709,-0.00048679117803376957
17.56135820000054,0.0,0.0,0.0,1.813279784762729e-05,0.0004816639647742775,-0.00021857457186550948
17.61192840000149,0.0,0.0,0.0,-5.680617757707258e-05,-2.4171518054543023e-05,-3.840348033951302e-05
17.665852400001313,0.0,0.0,0.0,-3.45094222608455e-05,0.0004152044479032682,-0.00013528931015748246
17.71243820000018,0.0,0.0,0.0,6.528928809980082e-05,-0.0002405554293415545,-8.335240512151856e-05
17.76041720000285,0.0,0.0,0.0,-3.8345706667220454e-05,0.00024821126323874013,-0.000379392032351777
17.812972000003356,0.0,0.0,0.0,-1.0900224004290171e-05,-9.667725569693095e-05,-0.00038930590507345146
17.862459500000114,0.0,0.0,0.0,1.0607295484041778e-05,-0.00014554573636755988,-0.00044140683110276455
17.91229310000199,0.0,0.0,0.0,-6.764602997471455e-05,-9.97402441723007e-05,-0.00040449322367237697
17.963933300001372,0.0,0.0,0.0,0.00011471839076623531,-1.5895238184859967e-05,-0.0005273850419425276
18.01164710000012,0.0,0.0,0.0,-0.00010969024174372813,0.00015421329031641045,-0.00026359258426843484
18.061580200002936,0.0,0.0,0.0,-6.31856695642921e-06,9.691899611102522e-05,-0.00022911738271364832
18.111881300003006,0.0,0.0,0.0,0.00010709690239392635,0.00024894535009237754,-0.0002450402509755579
18.16189680000025,0.0,0.0,0.0,-3.70869090848506e-05,-0.0002602238480864579,-2.7809633712587306e-05
18.212052300001233,0.0,0.0,0.0,-5.620092960868265e-05,0.0004932032579157079,-0.0001310051025060263
18.264301700000942,0.0,0.0,0.0,1.6621321222160215e-05,-0.0003495543851650634,-9.935126826315444e-05
18.312498800001777,0.0,0.0,0.0,-0.00010298439353564191,-0.000223216827653059,-3.684860596723952e-05
18.3630667000034,0.0,0.0,0.0,9.617905230825869e-05,1.1149104146970436e-05,-1.2522411739040362e-05
18.414515400003438,0.0,0.0,0.0,9.846997309240725e-06,-0.00012114735904346554,-0.00014959357700274767
18.46228070000143,0.0,0.0,0.0,3.2467378174789116e-06,-1.4050268725282768e-05,-0.0003888308161467787
18.51455260000148,0.0,0.0,0.0,-5.846614988976071e-05,0.0005380279030152292,-0.00047285824446039696
18.56295980000141,0.0,0.0,0.0,0.0001135889628476322,-2.7092875407190396e-05,-0.00038207596832480505
18.613324400001147,0.0,0.0,0.0,-0.00010610245360676091,-0.000826874077623209,-0.0004053368642058296
18.671394300003158,0.0,0.0,0.0,3.142860370132294e-05,0.00029707060291938675,-0.0002622232934259893
18.71306060000279,0.0,0.0,0.0,-2.025431436948554e-05,-0.00010625696225207855,-0.0003119259796619475
18.764584800002922,0.0,0.0,0.0,8.370755618692142e-05,7.364103414031541e-05,-0.00027126401601264505
18.813077600003453,0.0,0.0,0.0,-2.7784161983808132e-05,0.0004912831734739702,-0.0001522779728616258
18.862365100001625,0.0,0.0,0.0,4.604150137211751e-05,-0.00038983932462011964,-0.0003382579075137226
18.91139170000315,0.0,0.0,0.0,-4.400801430109764e-05,-0.0001353506844340095,-0.0004349638112099752
18.962292600001092,0.0,0.0,0.0,-2.545612666615642e-05,0.00036503707164042826,6.471129032440241e-06
19.01243280000199,0.0,0.0,0.0,1.9719220570807227e-06,-0.00044816382067814633,0.0001720834128413205
19.06212890000097,0.0,0.0,0.0,-0.0001006518844013139,0.00017156757913561297,0.00014972350959743317
19.112024900001416,0.0,0.0,0.0,-2.0260362478051568e-05,0.000542250375246527,0.00021007516826772988
19.16191660000186,0.0,0.0,0.0,0.00012868347052953205,-0.0002518321733811998,0.0001084594694731924
19.2117044000006,0.0,0.0,0.0,-4.8332795273459144e-05,-0.00023455987249868744,3.861246815778243e-05
19.262526500002423,0.0,0.0,0.0,3.893900580168079e-05,0.0006507940471694345,-1.2231556135834714e-05
19.311130800000683,0.0,0.0,0.0,-6.175994424042787e-05,-5.0236918292378246e-05,-9.451379399560163e-05
19.362548700002662,0.0,0.0,0.0,-4.303538949259323e-05,-0.0008453443609148657,-0.0005724719978057722
19.412542300000496,0.0,0.0,0.0,0.00014434968508705116,-4.25574116693143e-05,-0.0005173744125209252
19.462998200000584,0.0,0.0,0.0,-1.964453193439748e-05,0.0006210893604797119,-0.0005587182549693084
19.522089400001278,0.0,0.0,0.0,5.120819868193184e-06,0.0007163699621251137,-0.0004585935967330343
19.570379700002377,0.0,0.0,0.0,-4.988422237878764e-05,-0.000962932382697646,-0.0004918411655287264
19.61352110000007,0.0,0.0,0.0,-6.208266711382283e-05,-0.0001147655700925277,-0.00016093237097625397
19.663183000000572,0.0,0.0,0.0,3.3827543578092328e-06,0.00020593023633965998,-0.0004754034409774159
19.713556900002004,0.0,0.0,0.0,-7.59383800899281e-05,-0.0003303975617673628,-0.00046500236507905965
19.762887200002297,0.0,0.0,0.0,2.5121049535520067e-05,7.327677880885566e-05,-0.0005398011360113961
19.81286440000258,0.0,0.0,0.0,5.436795940926692e-05,0.000890111357918056,-0.000513327533689806
19.86357240000143,0.0,0.0,0.0,1.9390619877623666e-05,-0.00045615008319196347,-0.0004370245577317347
19.912365600001067,0.0,0.0,0.0,7.788424348923041e-05,-6.513591543345906e-05,-0.0002103439516219352
19.961238600000797,0.0,0.0,0.0,-8.872615961007194e-05,0.0002880645954654607,-0.00021203329826493703
20.011477300002298,0.0,0.0,0.0,-0.0001175929948041632,-4.0020386883409233e-05,-0.0003677140598755074
20.063176600000588,0.0,0.0,0.0,0.00010677356436255208,-6.400995800736185e-05,0.0002765520263023807
20.112604400001146,0.0,0.0,0.0,9.459823471475496e-05,4.050095200684845e-06,0.0003369156569378768
20.165015000002313,0.0,0.0,0.0,-5.2758278076883296e-05,0.00021987841057501277,0.00023222196593272916
20.210691100000986,0.0,0.0,0.0,5.229819791926422e-05,-0.00019169671761570136,0.00019021779621441017
20.26439930000197,0.0,0.0,0.0,-2.9891261130557724e-05,0.0002739912432625231,0.000148322614468516
20.31343840000045,0.0,0.0,0.0,-6.483243591211437e-05,-5.922588409485166e-05,8.172879041610204e-05
20.36483710000175,0.0,0.0,0.0,7.367570954168425e-05,0.00033632669239379753,0.00015298954290625204
20.41723220000131,0.0,0.0,0.0,0.00013045650542195964,0.0005885959528662321,-5.148055620807981e-05
20.46748330000264,0.0,0.0,0.0,-0.00015916200939760207,-0.0011144155508709106,-0.0003605696032302913
20.516843500001414,0.0,0.0,0.0,-0.00016029844481170848,-0.0003280364568090899,0.0002948660764716336
20.564342300000135,0.0,0.0,0.0,0.00013089923839548895,0.0005169134027348441,6.500036404373498e-05
20.61521360000188,0.0,0.0,0.0,6.007867196978544e-05,0.0003913050157099894,0.0001703201382649414
20.669901300003403,0.0,0.0,0.0,-2.7542528211008016e-05,-0.0010376685571568177,0.00013681087729167644
20.713504000003013,0.0,0.0,0.0,-5.437401766446587e-05,0.00024343657310029544,0.00022348976361451586
20.762501600001997,0.0,0.0,0.0,9.110452622999132e-05,0.0006978424797599291,0.0002901512256335604
20.81151370000225,0.0,0.0,0.0,-4.4542275332178784e-05,-0.00035263537529677566,6.713985412828265e-05
20.862094900003285,0.0,0.0,0.0,-3.5702694719833125e-05,-6.108112626512251e-06,-0.00025450113351778257
20.912863200002903,0.0,0.0,0.0,3.6823176451206195e-05,-0.0008206115660326078,-0.00016674212173452982
20.96120620000147,0.0,0.0,0.0,-8.047321132886547e-05,-0.00043019775153886684,-7.530819264759501e-05
21.012004200001684,0.0,0.0,0.0,8.145926896137496e-05,0.0012178166354735248,-0.0001609982704808736
21.063044600003195,0.0,0.0,0.0,9.881359201715141e-06,0.00034002906921453573,-0.0003287630895920043
21.11351000000286,0.0,0.0,0.0,4.937677955056816e-05,0.0001560169064992476,-0.0002977353397994925
21.167576100000588,0.0,0.0,0.0,-6.177453364731637e-06,-6.69318311650714e-05,-0.0002023904812497029
21.220947100002377,0.0,0.0,0.0,-5.48180381635462e-05,-0.00018741519344404035,-0.0008325744612182192
21.262342400001216,0.0,0.0,0.0,5.495811833632861e-05,-0.0007494888923797139,-0.00034537039311304446
21.31188650000331,0.0,0.0,0.0,-8.821068544265067e-06,0.000794872368333047,2.997966023566165e-05
21.363593100002618,0.0,0.0,0.0,-8.359014210987505e-06,0.00027050656289238743,0.0005544457237697425
21.411561100001563,0.0,0.0,0.0,-2.037422098245721e-05,-0.0014611077967965718,0.0002968101265665225
21.461487399999896,0.0,0.0,0.0,4.334802982392216e-05,0.0006837402122880416,-4.5390061658514216e-05
21.511877500000992,0.0,0.0,0.0,-9.023880416230355e-05,-0.0003874239594066335,0.00011721482049394012
21.56230680000226,0.0,0.0,0.0,-4.673380124097522e-06,0.00010155542542050038,-0.000228487077975461
21.620358300002408,0.0,0.0,0.0,8.06203079518505e-05,1.7916187526017947e-05,-0.0001432986626110602
21.663822000002256,0.0,0.0,0.0,3.5838990453425945e-05,0.0002637800345038458,-0.0005084580500722761
21.712979500000074,0.0,0.0,0.0,-2.275082648004217e-05,0.0012694993229542758,-0.0003191182699474272
21.76390100000208,0.0,0.0,0.0,1.5922567982518675e-05,-0.0015054329742024133,-0.00024348014162399356
21.812560000002122,0.0,0.0,0.0,-8.79350513287348e-05,-0.00018809019952443403,-0.00036440460472691625
21.861288800002512,0.0,0.0,0.0,7.09956458315794e-05,0.000547311472226292,-0.000244915396362088
21.91293610000139,0.0,0.0,0.0,-2.52160778388148e-07,0.00023911800854550477,-0.00011516184110080931
21.961585700002615,0.0,0.0,0.0,-2.417058814318588e-05,-0.0007213028164360662,-0.00013944335917968808
22.0112990000016,0.0,0.0,0.0,-3.549376130235331e-05,0.00047374378844420234,-0.00018013305999502175
22.061184500002128,0.0,0.0,0.0,-2.732402722738209e-05,-0.000357106265410023,-0.00027362955929376815
22.112153000001854,0.0,0.0,0.0,-1.8886435413617723e-05,0.00030928741036256077,-0.000104024963013258
22.1609595000009,0.0,0.0,0.0,0.00011389136159660689,0.0005792485409962391,-0.00027122242792389917
22.215083800001594,0.0,0.0,0.0,-4.0904639099810454e-05,0.000554138427768668,-0.000248207508171736
22.262104700002965,0.0,0.0,0.0,-9.34472028890575e-05,0.00039521703156174563,-9.041165883070039e-05
22.313952900000004,0.0,0.0,0.0,-1.0610926116606072e-05,-0.0011815749908882652,0.0003673423196607137
22.362482399999863,0.0,0.0,0.0,6.23336407324446e-05,9.919150605890717e-05,0.00027775650411650997
22.41305480000301,0.0,0.0,0.0,-3.731211761833188e-05,-7.289735605729163e-05,0.0002890375981185769
22.460629500001232,0.0,0.0,0.0,5.792742030727885e-05,0.00039111842435690723,0.00021203490283215945
22.512755900002958,0.0,0.0,0.0,-3.7386027339689457e-06,-0.00034660575675446274,0.00016160261524632765
22.560911399999895,0.0,0.0,0.0,2.191227333995616e-05,0.0008435943339483683,-6.0232100170734536e-05
22.614503000000695,0.0,0.0,0.0,-1.7985862879407901e-06,-0.0005431075255640448,0.00021872667351163446
22.66577220000181,0.0,0.0,0.0,6.769658211786203e-05,-0.0010561870434427907,0.0003037594341940236
22.712293300002784,0.0,0.0,0.0,-4.434783627360955e-05,0.0008497448939959519,0.0003624962773471788
22.763351200002944,0.0,0.0,0.0,-0.0001598532374529721,-0.0006649056470999507,7.553759576369037e-05
22.814562800002022,0.0,0.0,0.0,5.1247898392787686e-05,0.0002890192175393959,-0.00014090839633126555
22.864356200003385,0.0,0.0,0.0,5.795044845386241e-05,0.00042665298124030284,-0.0006959995370317132
22.912101200003235,0.0,0.0,0.0,2.3752861665066873e-05,-0.00025750210508744813,-9.428004554545574e-05
22.961355400002503,0.0,0.0,0.0,-9.655079517566246e-05,-0.0002781750705583393,-1.9585745500594325e-05
23.011752300000808,0.0,0.0,0.0,5.319684948667423e-05,-0.00027972420651963746,-7.798768965412955e-05
23.062626200000523,0.0,0.0,0.0,-4.518095422846186e-05,-0.00010000864497297586,-0.0002522923020708552
23.110779200000252,0.0,0.0,0.0,6.483113463848236e-05,0.0006956076810028793,2.120344025050312e-06
23.160842799999955,0.0,0.0,0.0,-5.451268841562984e-05,-0.00042854807792866765,1.557949691478539e-05
23.211928900000203,0.0,0.0,0.0,1.3901422074056542e-05,-0.00037304310766790745,0.00022160803291472038
23.26322390000132,0.0,0.0,0.0,-3.588315022149054e-05,-0.0003205182555353055,5.222309553261104e-05
23.310624100002315,0.0,0.0,0.0,2.9934103018694712e-05,0.0009218404867157054,4.054178186807683e-06
23.361987100000988,0.0,0.0,0.0,-7.666914922802404e-06,0.00043097680763383157,1.8699032849901735e-05
23.41285659999994,0.0,0.0,0.0,0.00013047876317250442,-0.0006320028939278571,-1.1787107423626995e-05
23.463347500000964,0.0,0.0,0.0,-5.8836382876634535e-05,-0.00012860104361470587,-4.699477065317e-05
23.5119975000016,0.0,0.0,0.0,-3.0792001125954974e-05,0.0006973999569190238,-0.00011620937326902722
23.56137900000249,0.0,0.0,0.0,3.4365527033243614e-06,-0.000269377377305467,-0.00011515603967690206
23.61196640000344,0.0,0.0,0.0,-3.2042270924437015e-05,0.00023558381042113969,-0.00037716711178064895
23.669916200000443,0.0,0.0,0.0,2.0724311609813785e-05,0.00025747293498453475,-0.0002726505886075593
23.712362199999916,0.0,0.0,0.0,-5.484626832505865e-05,0.0007907711022662417,-0.00019171333340561555
23.764501700003166,0.0,0.0,0.0,6.138983927518325e-05,-0.0009460907673503435,-0.000249828489278526
23.8125652000017,0.0,0.0,0.0,5.33006474923583e-05,0.0005758895918552365,-0.0003119070069482421
23.86235940000188,0.0,0.0,0.0,-3.605613036158138e-05,-0.0011886051081279395,-0.0004156917363478031
23.913523200000782,0.0,0.0,0.0,2.663245342761838e-05,0.001318727784353086,0.00022271699452469114
23.962448199999926,0.0,0.0,0.0,-6.62043175813825e-05,5.50236264218893e-05,0.00027214238995903084
24.012684700002865,0.0,0.0,0.0,-7.235831338618232e-06,-0.00010779173268296466,0.00016668375923345517
24.062983300002088,0.0,0.0,0.0,-3.9946132404671984e-07,-0.0004429066662376413,0.0002871179785852517
24.111904800000048,0.0,0.0,0.0,3.2050026299805513e-05,0.0005500139104355482,0.00024810641473223347
24.162874900001043,0.0,0.0,0.0,-2.4248013963991742e-05,-0.0005759019683207286,0.00011110902507913816
24.2137939000022,0.0,0.0,0.0,6.587553356203456e-05,-0.0002457735102674328,-0.00010549541005360231
24.263667800001713,0.0,0.0,0.0,-4.9148302681013484e-05,0.0001860961866048139,-0.00014598829814229907
24.31283600000097,0.0,0.0,0.0,3.744485410588204e-05,-0.00014623958727539606,-0.00038619298967512244
24.360895800000435,0.0,0.0,0.0,-1.2431304925153405e-05,-0.0008520072464162343,-0.0004702364901838903
24.41145730000062,0.0,0.0,0.0,6.296646792499029e-05,0.0003798441110255253,-0.00029371820226563533
24.460787700001674,0.0,0.0,0.0,-5.5614517292961355e-05,5.302287196201196e-05,-0.0002008963985547911
24.51073760000145,0.0,0.0,0.0,5.5359394648212435e-05,0.0011015507356765244,0.0007516988013042983
24.563234200002626,0.0,0.0,0.0,-3.490193535522913e-05,-0.0010280440243278504,0.0004337774502115964
24.613067600002978,0.0,0.0,0.0,1.1324436408288717e-05,0.0002018161329833931,0.0004366104138833274
24.669731600002706,0.0,0.0,0.0,-9.739208051732443e-05,-0.00020372019350204938,0.0004565656447523812
24.714277800001582,0.0,0.0,0.0,-1.0425068119678036e-05,0.00043257062089027627,0.00034647270679948137
24.765432400003192,0.0,0.0,0.0,7.527514635334649e-05,1.7868733792496427e-05,0.0002565286176869267
24.820585299999948,0.0,0.0,0.0,2.5386578330625498e-06,-0.0007603195022095489,0.00045553284320886057
24.862151500001346,0.0,0.0,0.0,-3.063924604815709e-05,0.0006883850885420954,0.0003531416697152719
24.912399600001663,0.0,0.0,0.0,-1.0541299642796105e-05,-0.0005108180204796219,0.000285216641984661
24.963320200000453,0.0,0.0,0.0,5.1385051041451566e-05,-0.0005405762010747863,-0.0002230926242275273
25.011641100001725,0.0,0.0,0.0,-3.509845893335557e-05,0.0009196181804340889,0.00014956319067288651
25.0628878000025,0.0,0.0,0.0,-1.3362971570543427e-05,8.987486041797579e-05,-3.6756183898005255e-06
25.11164700000154,0.0,0.0,0.0,3.434931979297686e-05,-0.0004824377834061527,-6.452421689849798e-05
25.164839800003392,0.0,0.0,0.0,-5.583467237626354e-05,-3.831966392376454e-05,-0.00020185569200294534
25.21375480000279,0.0,0.0,0.0,-5.6715688932490925e-05,-0.00024034841059569523,0.0001239658660775149
25.26443250000011,0.0,0.0,0.0,6.807586534852802e-05,0.0007045851786665744,-0.0002549025875910094
25.311745200000587,0.0,0.0,0.0,6.460069011559726e-05,-0.0006407659707781204,-6.77063593148156e-05
25.362030700001924,0.0,0.0,0.0,-9.040443412677249e-05,0.0001719381293534832,-0.00023376371178579844
25.412455900001078,0.0,0.0,0.0,4.472647784956026e-05,0.0007463967188148879,-0.00018434527184742848
25.462036000000808,0.0,0.0,0.0,-2.787339293653065e-05,-0.0006317334210254474,-7.160507118349709e-05
25.51256640000065,0.0,0.0,0.0,-6.367053838811895e-06,0.00066841651865314,-3.578854511364483e-05
25.562370500003453,0.0,0.0,0.0,3.307651331386953e-05,-0.0005386487297804735,7.696373347645304e-06
25.613460500000656,0.0,0.0,0.0,-1.6708673646589225e-05,0.0003638583938131736,-0.00022447135422499456
25.667715400002635,0.0,0.0,0.0,6.629807276298143e-05,-0.0007982017407888408,9.025835737655835e-05
25.713483400002588,0.0,0.0,0.0,-8.201940250936651e-05,-0.00016679612363942808,8.794570557847035e-05
25.76148330000069,0.0,0.0,0.0,5.5593264381876114e-05,-1.2881419421977927e-05,-0.00043713805403620005
25.812911500001064,0.0,0.0,0.0,7.334453184347189e-05,0.0007969427749638443,-0.0006449936940621792
25.86216340000101,0.0,0.0,0.0,-6.701915036987542e-05,-0.00027256832441232973,-0.00057860768903705
25.915113300001394,0.0,0.0,0.0,-2.4046350122470458e-05,0.00031371726404613384,-0.00044735432021278404
25.96194690000266,0.0,0.0,0.0,-6.972679918064624e-05,0.0011027281967029808,-9.573731391677839e-05
26.012066400002368,0.0,0.0,0.0,6.593815701641704e-05,-9.97720757686327e-05,0.00030255519240835697
26.06277940000291,0.0,0.0,0.0,2.1243550563392978e-05,-0.0006856149333080118,-3.1858586535068147e-05
26.110481400002755,0.0,0.0,0.0,-1.6574751260226684e-05,-0.0005495422902537895,-2.4775963883195023e-05
26.161002900000312,0.0,0.0,0.0,1.4473374196672146e-05,0.000522169993782008,-0.00029733082161271916
26.211068100001285,0.0,0.0,0.0,-6.0151653763193145e-05,0.00024751276753288265,-0.00043741338966478606
26.26294560000315,0.0,0.0,0.0,-5.652331693824224e-05,-0.0004417994906884584,-0.0002454827997599962
26.312205000001995,0.0,0.0,0.0,2.554575307931393e-05,6.608426361987364e-05,-0.0003390653828214521
26.362468800001807,0.0,0.0,0.0,0.00017956189554154626,-0.00037937705923903276,0.0001262535329413198
26.412012500000856,0.0,0.0,0.0,1.560784003534361e-05,-0.0004893347883775254,0.0004323617092111379
26.463950900000782,0.0,0.0,0.0,-0.00011013677544637012,-5.2441366848725796e-05,0.0002862835040021054
26.51262720000159,0.0,0.0,0.0,3.685067542922031e-05,0.00043978732879563283,0.00026529051874918716
26.562213700002758,0.0,0.0,0.0,-3.100230556602345e-05,0.00048229848083549667,-0.0003322204119970029
26.612596700000722,0.0,0.0,0.0,-7.656002416954198e-05,-0.0012556163266344037,-0.0001992508899322503
26.669868200002384,0.0,0.0,0.0,5.276345793371018e-05,-0.00021485755106765258,-0.00023737518709372293
26.71189680000316,0.0,0.0,0.0,-8.416231976816367e-08,0.0002710331214897964,-0.0002677564827089597
26.761954500001593,0.0,0.0,0.0,-5.9311331075629065e-06,0.0010591032791653996,6.806313541489534e-06
26.81235210000159,0.0,0.0,0.0,-2.6449542129694012e-05,-0.000350256323767203,-0.00014016583344806494
26.862474200002907,0.0,0.0,0.0,-2.5120806688145533e-05,-0.00018358798186085483,-0.0003787424532740498
26.912742500000604,0.0,0.0,0.0,-3.615834122910546e-05,-3.9540434388518144e-07,-0.0003562489391794785
26.96749280000222,0.0,0.0,0.0,7.869397415977567e-05,-0.00021889529043057058,-0.00011141031635722415
27.014038700002857,0.0,0.0,0.0,-5.194095551861608e-05,-3.5516995605456386e-06,-0.00013536948506594974
27.062543500000174,0.0,0.0,0.0,7.094566655281864e-06,-0.0002514085505090665,-3.595159618560992e-07
27.112610400003177,0.0,0.0,0.0,7.087996963754129e-05,-0.0001156102976732046,6.89703599241735e-05
27.16227500000241,0.0,0.0,0.0,3.1927218728287227e-06,0.0004906520855703368,-8.807276667256669e-05
27.21261180000147,0.0,0.0,0.0,-1.1768930875574379e-05,-0.000458928941103981,-0.00016657708275898424
27.263708400001633,0.0,0.0,0.0,-4.32771483785746e-05,0.0005317599779110691,-0.00011984407602679933
27.31239060000007,0.0,0.0,0.0,3.0331965637680766e-05,-9.39563065279685e-05,-0.00024170310723307936
27.362576999999874,0.0,0.0,0.0,8.049598118236278e-06,-0.0004979955707215402,-0.0003244913857957311
27.413641500002996,0.0,0.0,0.0,1.4460322111149064e-05,0.00018689992731059664,-0.0003740529235446471
27.46192510000037,0.0,0.0,0.0,-1.841493245534568e-05,-0.00021263758156263583,-8.165248199024891e-05
27.512121800002205,0.0,0.0,0.0,-8.628800665336757e-05,0.0005783020327709763,-3.7466787376123005e-05
27.56231520000074,0.0,0.0,0.0,7.968873230484246e-05,-0.000659952373935494,-8.57093304099822e-05
27.61247000000003,0.0,0.0,0.0,3.298913441857325e-05,0.00047301654846092244,-0.00016534001762051308
27.670441700000083,0.0,0.0,0.0,-7.23211734776437e-05,0.0002758123199452952,-0.000190001473108756
27.712161400002515,0.0,0.0,0.0,-4.9849203453585606e-05,-0.00010104905150902385,4.222496390448053e-05
27.763656600000104,0.0,0.0,0.0,0.00013962395947734264,-0.0005881508752630615,-0.0005365941895003788
27.812232600001153,0.0,0.0,0.0,-6.544302141821384e-05,8.860548571889682e-05,-0.00040660384136110206
27.86141530000168,0.0,0.0,0.0,6.86996576303143e-05,7.278815790085478e-05,-0.0005540318477527204
27.91158660000292,0.0,0.0,0.0,-6.494940048707497e-05,-0.00020812169073853014,-0.0004495412605453735
27.96154480000041,0.0,0.0,0.0,7.860875216322086e-05,2.1056115653451154e-05,-0.0005390667110676511
28.017915000000357,0.0,0.0,0.0,-0.00012845680843537853,-0.00010591638467576521,-0.00014866058236098545
28.062813200001983,0.0,0.0,0.0,1.649438494363479e-05,0.00036897474759530884,-0.0001323388530524686
28.111222600000474,0.0,0.0,0.0,-4.2380444453790914e-05,7.377301993189575e-05,-9.555891629052347e-05
28.162144800000533,0.0,0.0,0.0,2.7920921944605766e-05,1.1198857955691448e-05,-0.00015291142757040778
28.21299270000236,0.0,0.0,0.0,2.4097903547034894e-05,-0.00012766647597104266,-0.00030595714731225526
28.263824000001478,0.0,0.0,0.0,-9.320500087676822e-05,0.0002611810619980556,-0.0002487086947829292
28.31353880000097,0.0,0.0,0.0,7.253706905456918e-05,-3.312254551141163e-05,-7.087922396423481e-05
28.360772400003043,0.0,0.0,0.0,-6.0222047759873375e-05,-0.00030936607237553714,-4.3481537427933806e-05
28.412356400000135,0.0,0.0,0.0,7.743447731715698e-06,0.00014488145316901162,-4.14700874953242e-05
28.461298400001397,0.0,0.0,0.0,-8.742902833858218e-05,-0.0003085166027567014,-0.0001297046294680649
28.51116820000243,0.0,0.0,0.0,0.00012034445209667177,0.0003854332757010278,-0.00011090757742526655
28.562464400001772,0.0,0.0,0.0,1.0592417239538605e-05,-0.00023885733997679686,-0.00013785503737330217
28.612202900003467,0.0,0.0,0.0,5.898413823044046e-06,8.465879337737786e-05,-7.624407048748553e-05
28.669118300000264,0.0,0.0,0.0,-6.251247211371084e-05,-0.0001484134139112851,-7.486875622525238e-05
28.7122952000027,0.0,0.0,0.0,2.0309214224557535e-05,0.00027695628475658184,-0.00017411768270003753
28.762296000000788,0.0,0.0,0.0,3.604411609936327e-05,-0.00022837576030019613,-9.990146976606935e-05
28.81294550000166,0.0,0.0,0.0,7.500924911756608e-05,-7.4664410111455e-05,-0.0003553365025400187
28.86203680000108,0.0,0.0,0.0,-0.00013353730332347057,-0.0003357532161535698,-0.00032723903597987815
28.91147070000079,0.0,0.0,0.0,6.097178866960871e-05,0.00015048704409738878,-0.00015381481084599885
28.96196360000249,0.0,0.0,0.0,5.287835973806904e-05,1.4066071671074861e-05,-0.0002549833343470019
29.013972900000226,0.0,0.0,0.0,8.950355522382435e-05,7.362033343252529e-05,-0.00021231014355243462
29.06286590000309,0.0,0.0,0.0,-6.246167328853854e-05,3.7198537559254616e-05,-0.0001419094832140879
29.11904450000293,0.0,0.0,0.0,-8.072743939883698e-05,-0.00010557015430932783,-0.00025209863305782553
29.164626300000236,0.0,0.0,0.0,-2.0285114227468413e-05,0.00025587564180834825,-0.00023564807756648904
29.212641400001303,0.0,0.0,0.0,-2.786913512488878e-05,0.00015680388238344727,-0.00043594053056976694
29.26514590000079,0.0,0.0,0.0,5.273301131427446e-05,-0.00024043047209892075,-0.00048029866907288443
29.311701500002528,0.0,0.0,0.0,4.814086870940943e-05,-0.0002049509529890074,-0.00010604996111796856
29.361873200003174,0.0,0.0,0.0,-7.184756368360845e-05,-0.00020915177396543176,-0.00029630195447296053
29.411463899999944,0.0,0.0,0.0,1.595847984502854e-05,0.00019755841848609796,0.0005740025603006778
29.465869900002872,0.0,0.0,0.0,5.240928776580927e-05,0.00016563124261794018,0.00044054692149762484
29.512855700002547,0.0,0.0,0.0,1.5804920270215646e-05,0.0002882994798712905,0.0004109999291030602
29.56195950000256,0.0,0.0,0.0,-5.406216230821412e-05,-0.0005673385799703155,-0.00047840492909037097
29.613365900000645,0.0,0.0,0.0,-1.3100439407733801e-05,4.749629886584478e-05,-0.0002319325950878606
29.667122500002733,0.0,0.0,0.0,7.678158200263927e-05,-9.58077042328375e-07,-6.888432638182417e-05
29.717490000002726,0.0,0.0,0.0,-8.893096068893887e-05,0.000857556897616168,-0.0004442906231692998
29.762946300001204,0.0,0.0,0.0,-1.9738981011196064e-05,-0.000422312884453518,-0.0002223152061189859
29.81244230000084,0.0,0.0,0.0,-3.284645466360901e-05,8.887202694280851e-05,-7.30071062456299e-05
29.86246100000062,0.0,0.0,0.0,8.447580968053716e-05,-0.00042612377643932244,-0.000335657879769364
29.912298600000213,0.0,0.0,0.0,-4.094497998752036e-05,0.00017437809444186401,-0.00024357428899789797
29.961103400000866,0.0,0.0,0.0,-8.289494278576239e-05,3.78724313112645e-05,8.722823035358632e-05
30.011597400000028,0.0,0.0,0.0,8.225535940631942e-05,0.00015069702648179328,-9.496212486656619e-06
30.06207180000274,0.0,0.0,0.0,-2.7526962224446376e-05,-7.018292983495046e-05,9.550294475569209e-05
30.11176030000206,0.0,0.0,0.0,-3.605631868861462e-05,-0.00017264008388840282,6.083838991272251e-05
30.162795900003402,0.0,0.0,0.0,1.0019724935608406e-05,-3.623676439676952e-05,3.6129442560630916e-05
30.211666700000933,0.0,0.0,0.0,7.004857198091546e-05,0.0002275877987340441,7.376792254559584e-05
30.262913800001115,0.0,0.0,0.0,-1.7795429812680996e-05,-0.00013521557875956723,0.0001533985043828389
30.313425800002733,0.0,0.0,0.0,8.70663237942991e-06,-9.160379028759033e-05,0.00018152009386198991
30.36095260000002,0.0,0.0,0.0,-3.79219730414625e-05,0.0001502031641524571,0.00016240015509947853
30.412648700003047,0.0,0.0,0.0,0.00012581414483302692,6.332788386248208e-06,0.00021718082106668944
30.460998800001107,0.0,0.0,0.0,-6.0988880870204855e-05,-0.0001363061845757253,0.0004111938080795432
30.51200349999999,0.0,0.0,0.0,3.674844343929448e-05,3.129462931960545e-05,0.00040191846112320323
30.56217260000267,0.0,0.0,0.0,8.701034485406323e-06,0.0002575676921672516,0.0003720062801758734
30.61110770000232,0.0,0.0,0.0,3.7269728629097065e-05,0.000370561629504555,0.00040294731410078023
30.661188900001434,0.0,0.0,0.0,-4.74779385977441e-05,-0.00045811479625744407,0.00014518474645724584
30.711420200001157,0.0,0.0,0.0,-6.976222612362552e-05,-0.0006480722236976547,-0.00026015599264689527
30.76364250000188,0.0,0.0,0.0,5.760868939665172e-05,0.0004332772340661829,-0.00014717524703155232
30.812287200002174,0.0,0.0,0.0,-5.092230181623644e-05,-6.481055842975948e-05,-8.817775424838758e-07
30.861364600001252,0.0,0.0,0.0,9.5660936148947e-05,-0.00018311348844644756,-0.0001331412957660942
30.913194500000827,0.0,0.0,0.0,-6.639645104005984e-05,0.0003583905179527164,-3.957169185000472e-05
30.96298780000143,0.0,0.0,0.0,-2.9278730972624308e-05,-0.0002887006699473591,-0.00013327950346540566
31.01214020000043,0.0,0.0,0.0,8.911438010040527e-05,-9.241883504555554e-05,-0.0002275869170446106
31.061864100000093,0.0,0.0,0.0,-6.774239690552267e-05,-3.189874741690742e-05,-0.00015435903649503504
31.112556300002325,0.0,0.0,0.0,2.945097722335416e-06,7.516084692245997e-05,-0.00012802368912663082
31.163109600001917,0.0,0.0,0.0,-4.501855856291755e-05,-7.882520819056703e-05,-0.00015450945100581345
31.219755100002658,0.0,0.0,0.0,5.846594982217995e-05,8.18303069651772e-05,-0.00017740588457613356
31.26477120000345,0.0,0.0,0.0,1.0144652055996078e-05,0.00015267283458979578,-6.245299992181931e-05
31.31236980000176,0.0,0.0,0.0,-3.386493099568583e-05,-0.00030107086747812754,-0.0001584089751811411
31.36393120000139,0.0,0.0,0.0,4.317400812522807e-05,0.00011770514320395821,-0.0002994175192434585
31.41361660000257,0.0,0.0,0.0,-6.924455769983721e-06,0.00038593872003253517,-0.00044370675231745343
31.462868400001753,0.0,0.0,0.0,-4.728613807759485e-05,5.7140349359782624e-05,-0.00059423183760908
31.51324569999997,0.0,0.0,0.0,2.1513569346792384e-05,-2.8914048639415898e-05,-0.00047509835959841026
31.561220999999932,0.0,0.0,0.0,-3.3509610291238897e-06,-0.00012454796397782202,-0.00038701130361417453
31.614944500001002,0.0,0.0,0.0,-9.35259839664767e-06,-0.0002641248593218438,-0.000390836931081004
31.667490000003454,0.0,0.0,0.0,3.0282406928840754e-05,-8.794539707357514e-06,-0.0004038674815402927
31.71482670000114,0.0,0.0,0.0,-2.232871816411766e-05,2.856088205887628e-05,-0.0004300682752624201
31.76500390000001,0.0,0.0,0.0,4.784675718819344e-06,4.931748071006674e-05,-0.0004974232419242858
31.82253750000018,0.0,0.0,0.0,-3.516102554590969e-05,-5.944094441934284e-05,-0.0005545738545106501
31.868956600003003,0.0,0.0,0.0,2.7042919503889296e-05,0.0001901648375601786,-0.00046555592706924443
31.920963300002768,0.0,0.0,0.0,3.688781176217434e-05,0.00021189873396595474,-0.000550604245839865
31.970782100001088,0.0,0.0,0.0,-5.705795016584486e-05,-6.203899408241795e-05,-0.0005567149233190993
32.0201347000002,0.0,0.0,0.0,4.57516562264749e-05,0.0002699262136507934,-0.0006633134810371194
32.06996650000292,0.0,0.0,0.0,-9.031384045939929e-05,-0.00034570910296879883,-0.00040308201538654607
32.119565600001806,0.0,0.0,0.0,8.001372591635701e-05,0.0008354573267200004,-0.0004291553082479187
32.169983600000705,0.0,0.0,0.0,-5.4312639359324237e-05,-0.0005468812146017946,-0.0005122386236698362
32.21887220000281,0.0,0.0,0.0,-4.820737438500992e-05,-0.00020750238128663153,-0.0004235008870793796
32.272531000002346,0.0,0.0,0.0,6.150889074507259e-05,0.00039953398145453086,-0.00043397979766839317
32.320083700000396,0.0,0.0,0.0,2.6814984663095357e-06,-9.515218730666196e-05,-0.00017370449966637005
32.370678000002954,0.0,0.0,0.0,-6.541734842862962e-05,-0.0006820562503911818,0.00019088726724445355
32.418574600000284,0.0,0.0,0.0,-1.731925688854928e-05,0.00014000545728048194,0.00032130387683936115
32.47031830000196,0.0,0.0,0.0,4.086136208395959e-05,0.00010721752140229748,0.0003072429787299155
32.517351500002405,0.0,0.0,0.0,5.7165070909989054e-05,0.00040449872145942827,0.00014999780436134605
32.56924290000097,0.0,0.0,0.0,9.475184745426758e-06,-0.00024031774957681016,-0.00012302355603629176
32.61701630000243,0.0,0.0,0.0,-1.828370400543002e-05,6.478786828875688e-05,-0.00020125459889755185
32.671480700002576,0.0,0.0,0.0,2.4736910380385953e-05,0.000562765390011745,-0.00016072945663188728
32.719641100000445,0.0,0.0,0.0,-5.387332868288395e-06,-0.0003244060157273586,-0.00025443559971314976
32.76920820000305,0.0,0.0,0.0,9.620099192627068e-06,-0.00020824387245837222,-0.0002879766483531533
32.818652900001325,0.0,0.0,0.0,-7.336054090144697e-05,-0.00031319384947447,-0.0001789437165770831
32.86835490000158,0.0,0.0,0.0,2.2698281912190435e-05,0.000634733197496873,-0.00017154536169823527
32.92216350000308,0.0,0.0,0.0,-1.1730010268301737e-05,-0.000413360852882805,-0.0001578587212746725
32.969391800001176,0.0,0.0,0.0,4.101640015388221e-05,7.427313505621453e-07,-0.0001672578112774582
33.02078480000273,0.0,0.0,0.0,2.5615583612981846e-07,-0.0003130339794855976,-0.00014633577596419553
33.0687777000021,0.0,0.0,0.0,-2.4327603827528064e-05,0.0004718224889620116,-0.00019374243083394263
33.120101200001955,0.0,0.0,0.0,-3.321957608290381e-05,0.0004380112819651112,-0.0001715722689468921
33.167928500002745,0.0,0.0,0.0,7.579314674629796e-05,-0.0005405215790755606,-4.594487735026352e-05
33.22175100000095,0.0,0.0,0.0,-3.303696467975372e-05,-0.0002006289948259298,-0.00011911899674956641
33.27247400000124,0.0,0.0,0.0,-4.1829982305756914e-05,-0.00016328803688375393,-5.946612498730718e-05
33.31983670000045,0.0,0.0,0.0,2.5434230619910627e-05,0.0002986614402524469,-0.00011788955028930515
33.370206400002644,0.0,0.0,0.0,1.3098726950371077e-05,-0.00014623001132427205,-0.00013574321167073106
33.418791600000986,0.0,0.0,0.0,-5.2772449144195915e-06,-6.582541865140083e-06,-0.00013959929846398607
33.47023600000102,0.0,0.0,0.0,3.157965040039247e-05,0.00026690995830205513,-0.00014033055577253583
33.52320260000124,0.0,0.0,0.0,-3.5512573492293966e-05,-0.00020876754616788083,-0.00011532862173832256
33.56972670000323,0.0,0.0,0.0,-1.4786929990684262e-05,0.0008031073318077839,-0.0001968796574476075
33.61937519999992,0.0,0.0,0.0,7.818562613916218e-06,-0.0008557508129036188,-0.00014577113343643532
33.66882170000099,0.0,0.0,0.0,4.803601759649449e-06,0.00013852550660528614,2.7417532744903448e-05
33.71938990000126,0.0,0.0,0.0,-2.956647356293072e-05,-0.00022388307438608548,-0.0001142637958138675
33.773840500001825,0.0,0.0,0.0,-1.429896501059872e-05,8.960390486742527e-05,-0.00010545917808615899
33.8193588000031,0.0,0.0,0.0,-1.2786620890442528e-06,-3.1060368992246864e-05,-0.00013393828859892092
33.869457700002386,0.0,0.0,0.0,3.3195710695864805e-05,9.449443513496557e-05,-0.00013456823256061324
33.91869980000047,0.0,0.0,0.0,5.7235432052745424e-05,0.00013325565481976464,-0.00016056652495270447
33.969749500000034,0.0,0.0,0.0,-3.309952693813583e-05,0.0005855734227439437,-0.00023067813550510394
34.01925360000314,0.0,0.0,0.0,-4.588496947929524e-05,8.014948987726407e-05,1.0193530450702032e-05
34.06862650000039,0.0,0.0,0.0,2.16641794033924e-05,-0.0006137849597628212,6.278839378590572e-05
34.118947100003425,0.0,0.0,0.0,6.478154879921201e-05,-9.342739092150857e-05,4.010422471066087e-05
34.170844500000385,0.0,0.0,0.0,-5.69317944490753e-05,0.0003134633836495752,1.635986005411855e-05
34.21702140000343,0.0,0.0,0.0,8.859298133474413e-06,0.0003858565831202251,-3.183027050647285e-06
34.270209199999954,0.0,0.0,0.0,-1.2852240916019367e-07,-0.00012300975488600526,-2.9529061158712583e-05
34.32065830000283,0.0,0.0,0.0,2.4705735074287878e-05,-0.0005215601088834042,2.5233648606728805e-05
34.36774260000311,0.0,0.0,0.0,-1.3440817305488131e-05,0.00031694671444024906,5.87848348006205e-05
34.41951750000226,0.0,0.0,0.0,-7.801102275798562e-05,-0.00027308914780805585,-3.1910334051547116e-05
34.46902780000164,0.0,0.0,0.0,6.574876834011267e-05,0.00044213557734193166,3.0691201342943337e-05
34.519017800001166,0.0,0.0,0.0,4.0826606304602856e-05,-0.00030687473090222877,3.936744425381816e-06
34.56934810000166,0.0,0.0,0.0,1.9536409831483035e-05,0.00027529141690924345,-1.9037825400574143e-05
34.62106380000114,0.0,0.0,0.0,-7.885978664159915e-05,-0.0005267835304052521,2.6018268561788136e-06
34.66943480000191,0.0,0.0,0.0,-5.907761808078048e-05,-0.00032897034972959304,-4.67353211805043e-05
34.71851349999997,0.0,0.0,0.0,7.560712621125538e-05,7.131385857870829e-05,4.0907565418800234e-05
34.767011300002196,0.0,0.0,0.0,8.131658090395233e-06,0.0006002534838639758,-4.6256725526076255e-05
34.818642000002,0.0,0.0,0.0,-4.653810106857806e-05,-0.0005415692789619154,-2.2110845096867374e-05
34.86786700000084,0.0,0.0,0.0,-2.7641653756903513e-05,0.0004460967390221666,-9.138881697405533e-05
34.919155200001114,0.0,0.0,0.0,4.721648714612372e-05,0.00014024292684489335,-6.640753190100138e-05
34.96800430000076,0.0,0.0,0.0,3.48678972213866e-05,-0.0006591939677088481,-6.105743740636763e-05
35.01904220000142,0.0,0.0,0.0,-9.728158283409203e-05,-0.00012513344871088375,-7.768768708503602e-05
35.0696033000022,0.0,0.0,0.0,2.0310852446446846e-05,0.00011001631078173826,-0.00011235953290877071
35.120284399999946,0.0,0.0,0.0,-5.9861180259801716e-05,0.0002893409825534541,-0.0001337043009651726
35.16822440000033,0.0,0.0,0.0,5.879896453288997e-05,-4.7451439280310264e-05,-8.886023415735636e-05
35.21805339999992,0.0,0.0,0.0,5.608237717508776e-05,0.00012468837234933067,-0.0002497569724116837
35.270427200000995,0.0,0.0,0.0,-3.8978340773933714e-05,-0.0001098609681839345,-0.00014926278243385975
35.31748470000093,0.0,0.0,0.0,7.387193042050418e-05,-2.6978606748510275e-05,-0.0001465299059233751
35.36638070000117,0.0,0.0,0.0,-2.9121001124360893e-05,0.00027850007170080376,-4.518701998965779e-05
35.41841000000204,0.0,0.0,0.0,-2.281896368321175e-06,4.986882711220317e-06,-5.288410014551302e-05
35.47032410000247,0.0,0.0,0.0,-1.7840279518945584e-07,-0.00022653771396162394,1.752566982661094e-05
35.51955520000047,0.0,0.0,0.0,1.5755196087293417e-05,-0.0001312540166047409,-0.00020605986075719246
35.57028970000101,0.0,0.0,0.0,1.961895124729515e-05,0.0005348442221002085,-0.0002177705933517721
35.61896049999996,0.0,0.0,0.0,-5.75669856556621e-05,1.1768099901716441e-05,-0.00016018925451008088
35.67395740000211,0.0,0.0,0.0,2.2340199923140827e-05,-0.0007700724957687404,6.60968126996819e-05
35.720207300000766,0.0,0.0,0.0,-0.00010488751540707497,0.00021430575736524376,-0.00015695703608791477
35.76891320000141,0.0,0.0,0.0,0.00019058024562848387,0.00029888380262013464,-0.00024166056430598742
35.82090490000337,0.0,0.0,0.0,4.568997094278905e-05,-0.0002879187928608832,-8.449976153115846e-05
35.87019270000019,0.0,0.0,0.0,-9.503045356384074e-05,4.7264829459661885e-05,-0.0001322054855756102
35.92051640000136,0.0,0.0,0.0,6.60480451305462e-05,0.0004860939452571775,-9.226052370276124e-05
35.96768720000182,0.0,0.0,0.0,-6.15797284320655e-05,0.0001054465153357728,-0.00016802320282306493
36.020852300000115,0.0,0.0,0.0,-2.7646668999944153e-05,-0.0009350485840712022,-0.00022216165455824063
36.06921350000266,0.0,0.0,0.0,6.675937296800712e-05,0.00040114336813232304,-0.00023837993058564255
36.12203330000193,0.0,0.0,0.0,4.494910518012256e-05,0.000667753177241639,-0.00023763903220300805
36.16941530000258,0.0,0.0,0.0,-2.3112906880229798e-05,-0.0005399932178835503,-0.00015081192360062812
36.21926910000184,0.0,0.0,0.0,-0.00015563280435277444,0.00014024283927760675,-0.00014023313993275768
36.268243300000904,0.0,0.0,0.0,7.020627905795304e-05,-4.0704077944181486e-05,-0.00038344255502399725
36.31845650000105,0.0,0.0,0.0,-2.8511925102779912e-05,-0.00023774470103545036,0.00035003404114292277
36.36979640000209,0.0,0.0,0.0,6.421104922685771e-05,0.0003728874585898407,0.00047557295205049005
36.418335000002116,0.0,0.0,0.0,-3.49067326320289e-05,-0.0004136750587693847,0.00011390265300722187
36.46925960000226,0.0,0.0,0.0,-2.4735499321200936e-05,-0.0001349054082861596,-0.00016770709672906753
36.51983110000219,0.0,0.0,0.0,7.940156445695215e-05,0.00015941734332369407,-6.693446178048164e-05
36.568004500000825,0.0,0.0,0.0,1.4895130255192246e-05,0.000240403590115489,-3.609741903945354e-05
36.61578040000313,0.0,0.0,0.0,-5.8926264336361276e-05,-0.00024435589814521367,-0.0002095490138385107
36.6677499000034,0.0,0.0,0.0,-1.250009344675917e-06,-0.00021710624807639244,-0.00021237284519163356
36.71998750000057,0.0,0.0,0.0,-5.496076725848284e-05,0.00014572068768676813,-0.0007846923902209169
36.77133110000068,0.0,0.0,0.0,8.533079122875158e-05,0.0002607885574602745,-0.0003952162086860253
36.819621200000256,0.0,0.0,0.0,-1.859816472644767e-05,0.00020584768283009617,-0.0002723732474252158
36.86947870000222,0.0,0.0,0.0,-6.319867149390247e-05,-0.00013939019886535125,-9.212975619845424e-05
36.91918940000323,0.0,0.0,0.0,4.8321988246366644e-05,2.4814185617156075e-05,-0.00010511050708764182
36.97085590000279,0.0,0.0,0.0,6.597869283365614e-06,-0.0003133876743471907,-4.065589371275121e-05
37.01915660000304,0.0,0.0,0.0,6.514757071573119e-07,0.0003733448628729177,-7.333971623854078e-05
37.068481400001474,0.0,0.0,0.0,-0.00011557511563807215,-0.00023131269477851587,-1.8854266030734086e-05
37.11827430000267,0.0,0.0,0.0,0.00011513005081857899,0.0006141503762208955,4.529388258438482e-06
37.17010420000224,0.0,0.0,0.0,-1.1121770025745462e-05,-0.00015906174013359122,3.70294627352979e-05
37.21740460000001,0.0,0.0,0.0,-9.824844984561003e-06,0.00039626069649495194,-8.930477725803949e-05
37.268389100001514,0.0,0.0,0.0,7.158686680644382e-06,-0.0006133478828862824,-9.824283806528548e-05
37.31691080000019,0.0,0.0,0.0,3.99531533667461e-06,-8.551041096298557e-05,-8.474139105786225e-05
37.3692609000027,0.0,0.0,0.0,-3.84713658482465e-05,-0.0002685101363883045,-0.00012986056379180305
37.41811900000175,0.0,0.0,0.0,3.689199883907747e-05,0.0007127694797240903,-5.800274694115136e-05
37.469630999999936,0.0,0.0,0.0,-6.039359417825191e-06,-0.0002037616943394611,-0.00010966848838278145
37.51928350000162,0.0,0.0,0.0,2.7110810023349292e-05,-0.0001466046197088486,-6.891399278302388e-05
37.56741240000338,0.0,0.0,0.0,-9.16350794462959e-06,0.00044896688458930575,-6.521812456024868e-05
37.61948200000188,0.0,0.0,0.0,-3.750198249662386e-05,-0.0006076022151303322,-0.00011907187670930734
37.66882340000302,0.0,0.0,0.0,1.0441694328183057e-05,0.0001899731731882641,-0.00011047364928311706
37.718506300003355,0.0,0.0,0.0,1.024817041586617e-05,-0.00014760785313229933,-0.0003047028880195525
37.76869600000282,0.0,0.0,0.0,-8.881543786449315e-05,5.6821217802227416e-05,-0.0004381969011092617
37.81971380000323,0.0,0.0,0.0,3.158186086863948e-05,0.0004128844899901774,-0.0003894480196098419
37.86852020000151,0.0,0.0,0.0,-1.1718089402757075e-05,-0.0006864636865819358,-0.0002946799780737927
37.9176378000011,0.0,0.0,0.0,7.113697459116332e-05,0.00037833434359848113,-0.00032983408487645145
37.96674730000086,0.0,0.0,0.0,1.8953966895851666e-05,-0.0005004903186114078,-0.0004544302974690212
38.02083300000231,0.0,0.0,0.0,-4.7463643512539015e-05,0.00010193468228808107,-0.0006257825308411088
38.06814590000067,0.0,0.0,0.0,3.978186074219814e-06,0.0011170704548277028,-0.0007395653990458588
38.11928850000186,0.0,0.0,0.0,2.7727558048218625e-05,-0.00019174398820818065,-0.0007485683465361038
38.167519300001004,0.0,0.0,0.0,-8.148181055588207e-05,2.3349480734969248e-05,-0.0006591270430989736
38.219753800000035,0.0,0.0,0.0,3.273351569188955e-05,-0.00021352044903592287,-0.0004910535282018451
38.2679429000018,0.0,0.0,0.0,2.360361770563956e-08,0.000723750107541745,-0.00013623450311066993
38.31987910000316,0.0,0.0,0.0,-5.472040097888846e-05,0.00014353165708350503,-3.0653941619977784e-05
38.3671159000005,0.0,0.0,0.0,7.905197833411756e-05,-0.000353334068496136,2.8066539213727636e-05
38.41821600000185,0.0,0.0,0.0,-0.00010755742252827925,-0.000184812974455463,-0.00010272064339033842
38.46986290000132,0.0,0.0,0.0,8.519839048490651e-05,-0.00016848422630574012,-4.736852370015891e-05
38.51817570000276,0.0,0.0,0.0,-1.1062139765576652e-05,8.68298200712822e-05,-0.00019276607315551325
38.567794100003084,0.0,0.0,0.0,-1.331823299858443e-05,9.134415136096452e-05,-0.0003059007967213015
38.61841390000336,0.0,0.0,0.0,8.582795275694877e-06,-0.0007588602112848265,-6.833993633216879e-05
38.67152900000292,0.0,0.0,0.0,-8.890382174557506e-06,0.0009067583241558298,-0.00023877047053055757
38.718927100002475,0.0,0.0,0.0,3.464304939644936e-05,-0.00022621580292663776,5.476126299459674e-05
38.7681491000003,0.0,0.0,0.0,-2.9165904645556124e-05,5.8861298990123625e-05,-0.0001251589989112763
38.818886300003214,0.0,0.0,0.0,8.374792977449002e-06,0.00041084350148603156,3.88000903369076e-05
38.869231800003035,0.0,0.0,0.0,-8.311984178177651e-05,-0.0001880765769441901,6.334385094646743e-06
38.91709980000087,0.0,0.0,0.0,2.5748772966419564e-05,-0.00020945090398332648,9.04165715045569e-05
38.96641860000091,0.0,0.0,0.0,2.7489204768795304e-05,-0.00019921282311371948,5.353860590759382e-05
39.01798400000189,0.0,0.0,0.0,-3.179120137099678e-05,-2.168087743293925e-06,0.0001965256276540666
39.06903130000137,0.0,0.0,0.0,0.0001182185807404067,0.0006468569853479338,0.00018320560623816083
39.12176340000224,0.0,0.0,0.0,6.706974001523056e-05,-0.00036836479517724104,0.0002107103027402015
39.16912170000069,0.0,0.0,0.0,-0.000108119565714968,-0.00037339701633769615,0.0002334619322168395
39.21734700000161,0.0,0.0,0.0,-5.8329961912122786e-05,0.00017884300742629892,0.00011234303307910902
39.26864920000298,0.0,0.0,0.0,0.00015721431285047055,5.273808937732673e-05,0.00017415041611362314
39.319741300001624,0.0,0.0,0.0,-0.00020610976487887018,-0.0008399928680929942,1.372276165371424e-05
39.36765420000302,0.0,0.0,0.0,3.889386422759862e-05,0.0009907367822683997,-0.0002806488516506883
39.418888200001675,0.0,0.0,0.0,-3.001705114312711e-05,-4.980381310821243e-05,-0.00020375792194525218
39.467741899999965,0.0,0.0,0.0,-6.753088012170049e-06,-2.4116121714402613e-05,-0.0003104423354415128
39.51976190000278,0.0,0.0,0.0,9.344073188059436e-05,-0.0008050786599245708,-0.00022069117877055445
39.56802530000277,0.0,0.0,0.0,-4.855900293820885e-05,0.0005341399010312081,-0.0003771334286062438
39.616693900003156,0.0,0.0,0.0,2.8025687338783905e-05,-0.0006896549534426522,-0.00018794488925450066
39.66832680000152,0.0,0.0,0.0,3.11967888711521e-05,-7.564835060409523e-05,-0.00010710860335339667
39.71968500000003,0.0,0.0,0.0,-1.127683348351775e-05,0.0004211397000035093,-0.00020186930885634092
39.767791000002035,0.0,0.0,0.0,-3.6713194978159377e-05,-7.148982200471429e-05,7.857631957536391e-05
39.818616500000644,0.0,0.0,0.0,0.0001746111677952353,0.00041796142265371975,0.00011336456991559736
39.866456100000505,0.0,0.0,0.0,-6.833083174494452e-05,-0.0008720568893249114,0.00012790296252558741
39.919455400002334,0.0,0.0,0.0,-6.150257716560262e-05,0.0013864595194099244,9.668338729682815e-06
39.96963470000264,0.0,0.0,0.0,9.641661001973571e-05,-0.00042378917572394087,-0.0003869579862611634
40.018746400000964,0.0,0.0,0.0,3.635210474480098e-05,-0.0008736163137979973,-6.7069050101072e-05
40.068566900001315,0.0,0.0,0.0,-6.144306995688645e-05,0.0003081156419486519,8.330729283484737e-05
40.11753200000021,0.0,0.0,0.0,7.304087540711074e-05,-0.0002140749210407237,-2.587808932359738e-05
40.16954120000082,0.0,0.0,0.0,-7.101349667190134e-05,-3.7210032616472916e-05,4.432559279595728e-06
40.2186056999999,0.0,0.0,0.0,1.1593209755402154e-05,0.00015296578559831334,-0.00023782274735232646
40.26866330000121,0.0,0.0,0.0,-2.93854993584527e-05,-7.462490924903515e-06,-0.0001942063220124423
40.31949960000202,0.0,0.0,0.0,-9.393432333425114e-05,0.0005380678580258333,-0.0002481630780808588
40.3707198000011,0.0,0.0,0.0,0.00013214911869591524,-0.0004120312838059642,-0.00032866422508070505
40.41649170000164,0.0,0.0,0.0,-0.00012554063560223737,-0.0001401379636870204,-0.00018627973563684972
40.46758350000164,0.0,0.0,0.0,3.496863161480483e-05,0.00045818362605401985,-0.00020721988249415931
40.51782490000187,0.0,0.0,0.0,4.782044328375737e-05,-0.0008101887325005349,4.14670754575699e-05
40.569120200001635,0.0,0.0,0.0,-1.7123853043714725e-05,0.00048336618966716326,0.00012123141427723705
40.62049950000073,0.0,0.0,0.0,-0.00011262792351530297,0.00012603694129396505,-0.00018291471727628975
40.666440000000875,0.0,0.0,0.0,4.993973469047665e-05,-0.0006853785711030981,-0.00014472847294367793
40.71923650000099,0.0,0.0,0.0,9.477285875567663e-05,0.0002779864492395372,-9.229430572141878e-05
40.76936420000129,0.0,0.0,0.0,-3.4636357398371896e-05,-0.0003788877037235182,6.647238045194341e-05
40.81873980000091,0.0,0.0,0.0,4.2519092090287873e-05,0.00019124498729537558,-7.967474408168395e-05
40.86766940000234,0.0,0.0,0.0,-9.369393028135175e-05,-0.00024258852167756425,-0.00016207464569333165
40.91874000000098,0.0,0.0,0.0,2.1771403078782448e-05,0.00029460938357305785,-0.00017068150763050762
40.96712750000006,0.0,0.0,0.0,2.039620308362481e-05,0.00023563489348334384,-0.00011249720831923083
41.0217190000003,0.0,0.0,0.0,1.0683587189608252e-05,-3.399675224846647e-05,-9.075323139425756e-05
41.06813620000321,0.0,0.0,0.0,1.1224364655080413e-05,-0.0003871481113127935,-0.00010413698601116438
41.1173938000029,0.0,0.0,0.0,-0.00017334109257185706,0.0001676837902789136,-0.00014176613403783268
41.16628980000314,0.0,0.0,0.0,0.00013049221189098827,0.00010935669563813976,-2.607271287127181e-05
41.220878000000084,0.0,0.0,0.0,-2.448870826063819e-05,0.0003565995054193784,-0.0001309286656413116
41.266841399999976,0.0,0.0,0.0,2.4084988711810356e-05,0.0001562126757324528,-0.00013082812987394422
41.31732420000117,0.0,0.0,0.0,5.6233612370210064e-05,-0.0004980911356370242,-0.00010028367513269721
41.3676959000004,0.0,0.0,0.0,-0.0001177648298942668,0.00012978127430661113,-0.00013399973172221522
41.41798100000233,0.0,0.0,0.0,7.467557704730316e-05,-0.00015126024798817485,-3.223809701932355e-05
41.468937800000276,0.0,0.0,0.0,1.1132934123174643e-05,-0.00018068209144811583,-0.00016040601014383023
41.518824000002496,0.0,0.0,0.0,-7.307548186901884e-05,0.00024000051061444773,-0.00011665385805902835
41.56801000000269,0.0,0.0,0.0,1.0785351527247775e-05,2.657345412115982e-05,-0.0002249837234309858
41.61746590000257,0.0,0.0,0.0,8.697264282662786e-05,5.483069894219491e-05,-0.00017824906715177677
41.668053500001406,0.0,0.0,0.0,-6.509909248582105e-05,0.0002541251620587476,-2.5741232460282895e-05
41.71801580000101,0.0,0.0,0.0,7.176292946146508e-05,-0.0004623709512954356,-6.498253456389949e-05
41.767964100003155,0.0,0.0,0.0,-6.004926035774518e-05,7.991714705435555e-05,-8.360863886430608e-05
41.817806900002324,0.0,0.0,0.0,5.032694008870045e-05,0.0006937562983323686,-0.00017780773228394864
41.867816500001936,0.0,0.0,0.0,5.548957488713413e-06,-0.0008275575971443774,-0.00024023303438365168
41.919049000000086,0.0,0.0,0.0,-1.8043513833989328e-05,0.00029356427093190447,-6.476397502616596e-05
41.969799200000125,0.0,0.0,0.0,-9.839727731702942e-05,-7.098415272515232e-05,0.00012580018991621567
42.01726670000062,0.0,0.0,0.0,0.00011327330667406,0.0006763105869902169,-0.00011113154079401698
42.069075300001714,0.0,0.0,0.0,-7.133343623874092e-05,-0.0007402417791442023,-8.201781406711302e-05
42.118266700003005,0.0,0.0,0.0,-7.367391122268394e-06,0.0002973704437502048,-9.115893367656371e-05
42.16537800000151,0.0,0.0,0.0,6.629231608020221e-05,-0.000505863081160907,-0.00028579618472834904
42.218624000001,0.0,0.0,0.0,3.247179440387373e-05,0.00037780793974140885,-0.00020582875357405068
42.2681982000031,0.0,0.0,0.0,-1.1754953896459236e-05,-9.887153530626615e-05,-0.0002152149222932095
42.31879100000151,0.0,0.0,0.0,-1.6542771164571108e-07,0.0003691867020876992,-8.715798030677749e-05
42.36812290000307,0.0,0.0,0.0,-0.00010453343068028672,-0.0005881964400723957,-9.222876542058496e-05
42.41833050000059,0.0,0.0,0.0,6.24151546135096e-05,0.0005368931014228718,-4.975498658394045e-05
42.46851600000082,0.0,0.0,0.0,-5.916374197232116e-05,-0.00043073824527108443,-0.0005773884416753658
42.51902390000032,0.0,0.0,0.0,7.66634527501138e-05,0.00038940225006879267,-0.00037667969932689136
42.56782050000038,0.0,0.0,0.0,-0.00011765705590996351,0.0002927475821773135,-0.0004269049836733285
42.615981300001295,0.0,0.0,0.0,5.5511255134313786e-05,-0.00022944820776074358,-0.00022782255041395882
42.666947400000936,0.0,0.0,0.0,-4.9269388152167416e-05,0.00032911771597095464,-0.0001931646610491757
42.71931460000269,0.0,0.0,0.0,-8.653335698775322e-05,0.00019085289676604029,-0.0002945586616023728
42.76673310000115,0.0,0.0,0.0,8.545735802787469e-05,-0.000494040072595661,-0.00038127053061519643
42.81681540000136,0.0,0.0,0.0,-1.7928923926352927e-05,-0.00011423165378626475,-0.0001750257452931973
42.86660269999993,0.0,0.0,0.0,6.824613456350598e-05,0.00021391977484415387,-0.00015097060923367019
42.916043700002774,0.0,0.0,0.0,-5.4800671836243434e-05,0.00039282489614868613,-0.00013456795082148582
42.96763450000071,0.0,0.0,0.0,-9.556036045094191e-05,4.219500196033995e-05,-0.0002433070938785877
43.016202100003284,0.0,0.0,0.0,0.00013111510326302647,-0.00031613013831806606,-0.0002815067346492665
43.06494759999987,0.0,0.0,0.0,2.4938812553480162e-08,0.0003260708067566038,-9.62066397010577e-05
43.11643410000033,0.0,0.0,0.0,-2.3524214897673682e-05,-0.0003430389394280374,-7.176756223462272e-05
43.17089060000217,0.0,0.0,0.0,7.628013485210819e-06,8.953083933391813e-05,-0.00012062896689812408
43.21791940000185,0.0,0.0,0.0,3.8085264459716853e-05,0.0004481373366161575,-0.00012487089949958963
43.267677700001514,0.0,0.0,0.0,-4.87097477242961e-05,-0.00042684949623572144,-0.00011401275934187809
43.31870510000226,0.0,0.0,0.0,1.2519016848493985e-05,-0.0003780614255729668,-5.019274438633683e-05
43.36924700000236,0.0,0.0,0.0,-4.176518719470744e-06,0.0007199948857926831,-0.0002675151974609817
43.41756780000287,0.0,0.0,0.0,-3.2569407957943556e-05,-0.0009350825143725049,-0.00021083395438127914
43.46650640000007,0.0,0.0,0.0,5.122533513753437e-05,0.0006877149481796612,-0.00024011078258557838
43.51862290000281,0.0,0.0,0.0,-4.997348325853031e-05,5.502965443462644e-05,-0.00023351020159281615
43.56873489999998,0.0,0.0,0.0,6.341061857709596e-05,0.0002663980478317974,-0.0002375839675597001
43.61832290000166,0.0,0.0,0.0,-4.029785170073254e-05,-0.0006835177701260317,-0.00022876292938449046
43.66580570000224,0.0,0.0,0.0,5.923147494832467e-05,-0.0007066048031377373,-0.00024113192947578438
43.716053300002386,0.0,0.0,0.0,-1.5209376910846597e-05,2.037372893629724e-05,-0.0003115830494806336
43.76757110000108,0.0,0.0,0.0,0.00010090742923680952,0.0003974241237314694,-0.000202961894212582
43.818765600000916,0.0,0.0,0.0,-0.00015482110631528096,0.00028097139979268933,8.73469995725304e-05
43.866975300003105,0.0,0.0,0.0,3.055715893150255e-05,-0.00042614758587104676,0.000216194513120198
43.91686550000304,0.0,0.0,0.0,3.2185699544184906e-05,0.00040907872517896647,0.00017863271756176093
43.96669290000136,0.0,0.0,0.0,-1.816185607749159e-05,0.0006522163246266443,6.912655434669514e-05
44.020644500000344,0.0,0.0,0.0,6.424163371055739e-05,-0.0002828611839136784,0.00015096881269235514
44.06433790000301,0.0,0.0,0.0,-2.8072816867761304e-05,4.828274417464418e-05,0.00017527221283733104
44.11665730000095,0.0,0.0,0.0,2.143092574619278e-05,-0.0005065457308510101,8.555739098785675e-05
44.16554640000322,0.0,0.0,0.0,3.3350589949844406e-05,0.00048726310357062564,0.000162547451371209
44.21867800000109,0.0,0.0,0.0,-2.390618285470665e-05,-4.944256146326082e-05,-0.00019257001944927372
44.26780890000009,0.0,0.0,0.0,6.219262717326407e-06,-0.000392304240309413,-0.00039928514126236914
44.319015500001115,0.0,0.0,0.0,-3.0214299421604548e-05,-0.0002654674680851701,-0.000402559385523871
44.36697400000048,0.0,0.0,0.0,3.7826723667261545e-05,-0.00021797256516322748,-0.0003303619224661528
44.417412000002514,0.0,0.0,0.0,-4.9591563067306844e-05,0.0002849262666991761,-0.00033867900241596195
44.46870250000211,0.0,0.0,0.0,5.2886413187534095e-05,-0.0001269567893301948,-0.00034225482142792764
44.515870000002906,0.0,0.0,0.0,-3.077030289352816e-05,-0.0001116156497217499,-0.00018613766019740197
44.569281000000046,0.0,0.0,0.0,4.7132902211683165e-05,0.0001487661196234277,-0.00028451171952286234
44.61643010000262,0.0,0.0,0.0,-8.790825733777628e-05,7.183233903045371e-05,-0.00022857820335077129
44.67045930000313,0.0,0.0,0.0,2.2890506215379015e-05,-0.00023704377879443773,-0.00023330273147814838
44.71726600000329,0.0,0.0,0.0,-2.2864414500671003e-05,-8.15718740881437e-05,-0.0002799980369388279
44.768749700000626,0.0,0.0,0.0,-3.467442956403484e-05,0.00018227597732379275,-0.00029817058192297725
44.82137750000038,0.0,0.0,0.0,5.2022593812805e-05,0.000237000666997245,-0.0003272467097802469
44.86900570000216,0.0,0.0,0.0,4.215356278914763e-05,0.00042761350415974127,-0.00034957213723684275
44.917714900002466,0.0,0.0,0.0,-3.409645006464215e-05,-0.0003316720160922236,-0.0003669437529069424
44.967361200000596,0.0,0.0,0.0,-9.64322420258376e-06,-0.00021490494823766973,-0.0003963724872227013
45.018723500001215,0.0,0.0,0.0,6.168364991250387e-05,-8.72621026653034e-05,-0.0003830244130962241
45.06943280000269,0.0,0.0,0.0,-0.00013151174824910502,-0.0001642873681438922,2.4781976597974827e-06
45.117921200002456,0.0,0.0,0.0,8.154542781795704e-05,0.0007218358666899632,-0.00018271694770299166
45.16814270000032,0.0,0.0,0.0,-0.0001491483403035109,-0.000638110995633971,-3.079548428161903e-05
45.21759230000316,0.0,0.0,0.0,9.462593694342382e-05,0.0006622477466370072,-0.0003416148855284861
45.267341800001304,0.0,0.0,0.0,2.91472599145198e-05,-1.497712697434446e-05,-0.0002522728256126795
45.31963440000254,0.0,0.0,0.0,-6.905711308611675e-05,-0.0005068222117555169,-0.00025147842221498733
45.36702910000167,0.0,0.0,0.0,3.9589979674295344e-05,0.00011057391786426176,-0.0004431347699136967
45.417905600002996,0.0,0.0,0.0,-6.747974423211479e-05,0.00019232203824985194,-0.0003473969481201574
45.4689466000018,0.0,0.0,0.0,5.184092058154059e-05,-0.0002365325513931903,-0.00031613527439868807
45.51864670000214,0.0,0.0,0.0,5.1282703509749474e-05,-6.623895000153805e-05,-0.0003401510461775119
45.56761310000002,0.0,0.0,0.0,3.462109090867184e-05,0.000650691147997842,-0.0002073934336562331
45.61876240000129,0.0,0.0,0.0,-4.86665273203572e-05,0.00014632853547973703,-0.00024325874528081037
45.666916400001355,0.0,0.0,0.0,1.0793504674444634e-06,-0.0007224877665584213,-0.00014778656387121885
45.71879110000009,0.0,0.0,0.0,-5.251767138868709e-05,-0.0002317739793248343,-0.0001629837335307629
45.767351100003,0.0,0.0,0.0,5.7195065733889656e-05,0.0006420616930508114,-0.00044590848670626217
45.8168250000017,0.0,0.0,0.0,-6.728126891579963e-05,-0.00027206444580069505,-0.0006902979707884074
45.866114400003426,0.0,0.0,0.0,6.83947893860183e-05,-0.0003281592597775058,-0.00049970601307568
45.91735670000344,0.0,0.0,0.0,-8.803983499196003e-05,0.0006526091063466417,-3.2866099817664917e-05
45.96762750000198,0.0,0.0,0.0,1.7087024646896683e-05,-0.0005013585174412851,-0.0001425523026567226
46.01716110000052,0.0,0.0,0.0,4.088886224726959e-05,7.065949728197726e-05,5.366695931789595e-05
46.067858200000046,0.0,0.0,0.0,-3.748072378110122e-05,-5.7265109872756185e-05,0.00015403923251528916
46.116216800000984,0.0,0.0,0.0,1.3397491066530686e-05,0.000151635964072325,0.00016905135654772925
46.16892550000193,0.0,0.0,0.0,-1.0951634138733627e-05,-0.00018859589350760997,0.00015624116024157516
46.21751220000078,0.0,0.0,0.0,-8.62670077489688e-05,-0.00035877044625374523,8.239936249915878e-05
46.26725760000045,0.0,0.0,0.0,0.00010218690957186429,0.00042434814267915247,5.299154770039862e-05
46.318205300001864,0.0,0.0,0.0,4.485587187997849e-05,-0.00017257421662717306,0.00032338381715064197
46.36883149999994,0.0,0.0,0.0,-7.463961651664452e-06,0.0002740954828220863,0.0002287092207078282
46.41692810000313,0.0,0.0,0.0,-2.431987228494532e-05,0.00016071990115021362,0.000264651690242518
46.468191600000864,0.0,0.0,0.0,7.11704021986626e-05,-9.9576004087191e-05,0.00026278531383585284
46.51697830000194,0.0,0.0,0.0,-4.286248518822652e-05,-0.00036610869450816633,0.0003043636082724381
46.56847160000325,0.0,0.0,0.0,1.192517415075078e-05,0.0004047916387569896,0.00041837715405955845
46.61768160000065,0.0,0.0,0.0,3.4755177547453283e-05,-0.0005289806459903026,-0.00013868428010491184
46.66791920000105,0.0,0.0,0.0,-0.00014890419657134972,0.0003834361218564957,-0.0003901014529400816
46.71654370000033,0.0,0.0,0.0,1.3142401332453955e-05,0.0006086580814653493,-0.00016466019405551706
46.76578410000002,0.0,0.0,0.0,3.2146168453963716e-05,-6.678258561994713e-05,-0.00022533338003420564
46.81841270000223,0.0,0.0,0.0,-3.922698329110434e-06,-0.0002515112656837466,-7.085038208211233e-05
46.86750949999987,0.0,0.0,0.0,5.560151805016973e-05,0.00032001777309949807,-0.00014046680580711118
46.91734820000056,0.0,0.0,0.0,7.790002178118715e-06,-0.0006878729554284531,-0.00012459856403113225
46.96736570000212,0.0,0.0,0.0,-4.3963964193573845e-05,-0.000302221767979724,-6.102199215730812e-05
47.018402500001685,0.0,0.0,0.0,-1.4373218297444617e-05,-0.00021306585749694302,-0.00010688591850371401
47.06602340000245,0.0,0.0,0.0,-3.273458001296663e-05,0.0006730287189549349,-0.00011397517201137974
47.11653530000331,0.0,0.0,0.0,2.7862686531158754e-05,-0.0005321919348195615,-7.863088468474301e-05
47.16695190000246,0.0,0.0,0.0,3.638560449903638e-05,0.0006180155496912278,0.0003588441544706144
47.21787940000286,0.0,0.0,0.0,-6.277209878364144e-05,0.0003876818928599356,0.00019758446228498503
47.26870970000164,0.0,0.0,0.0,5.642468886259013e-05,-0.00025321817139568664,0.00024945682125732875
47.31773460000113,0.0,0.0,0.0,4.79815913884985e-05,0.0002628752226068517,0.00014116167069566892
47.3671617,0.0,0.0,0.0,-5.291422302458327e-05,-0.0003351138810836152,-0.00011241321782530592
47.41803080000318,0.0,0.0,0.0,4.130191545422094e-05,0.0009377639921342705,0.0001288522115864058
47.46683690000282,0.0,0.0,0.0,3.932638902887235e-05,-0.000439673302619463,1.1089377037829208e-05
47.518124199999875,0.0,0.0,0.0,-5.972124441238303e-05,-0.00036015028454530935,-9.358868624094535e-05
47.56807000000117,0.0,0.0,0.0,-2.646273796862156e-05,0.0007331023940856635,9.41728468917574e-05
47.616987600002176,0.0,0.0,0.0,7.262845903935499e-05,0.00041957165674251403,2.9598349485227945e-05
47.67043790000025,0.0,0.0,0.0,-8.729191574384519e-05,-0.0016374794542307835,0.00014294694266289097
47.717414100003225,0.0,0.0,0.0,8.072006059373237e-05,0.0011855899758482053,5.067209616145253e-05
47.76727320000282,0.0,0.0,0.0,-2.498403432562139e-05,-0.0005495859106330522,-3.889863178923502e-06
47.81801650000125,0.0,0.0,0.0,8.134771891607276e-05,0.0010939882183540525,-0.0001143076835171103
47.86889670000164,0.0,0.0,0.0,-0.00012995311756751145,-0.0011136851392150844,-0.00015918273989052334
47.917913500001305,0.0,0.0,0.0,-2.116186113180834e-05,-0.0003074430049193926,-1.9888294507888403e-05
47.96572130000277,0.0,0.0,0.0,-9.719479702720462e-05,-0.0002317647729847066,7.889118822288013e-05
48.016950799999904,0.0,0.0,0.0,5.0491195404091604e-05,0.0014261580732800668,7.168838809360419e-05
48.07116670000323,0.0,0.0,0.0,-4.178798274008329e-05,-0.001136415864252864,-4.089091961384686e-05
48.11801410000044,0.0,0.0,0.0,8.166255952176472e-07,0.0001996309989593062,-0.00018213936262980363
48.16721750000215,0.0,0.0,0.0,9.20411250570352e-05,-3.891646670081937e-05,2.144104030089281e-05
48.216864000001806,0.0,0.0,0.0,4.7622540125097926e-05,-0.00023978680550820926,-5.5061638889067796e-05
48.26886580000064,0.0,0.0,0.0,-0.00010848413853597897,-0.00011797598453488738,-0.00010549030686644883
48.318623000002844,0.0,0.0,0.0,8.896981082150264e-05,-6.776939543586317e-05,-6.51664008533369e-05
48.36752290000004,0.0,0.0,0.0,-4.662381836402876e-05,1.3107744108918422e-05,-7.915648527290389e-05
48.41650200000004,0.0,0.0,0.0,7.948768500743246e-05,8.757796205745676e-05,6.937223416183593e-05
48.46705060000022,0.0,0.0,0.0,-9.97043837768445e-05,0.00021034150143166806,4.9610167022620324e-05
48.5183339000032,0.0,0.0,0.0,6.960741904444353e-05,0.00028142131133763077,0.00016031062676849105
48.56582780000099,0.0,0.0,0.0,-5.136073502992081e-05,-0.0011900348473173196,0.0001473811820851942
48.616241400002764,0.0,0.0,0.0,1.1695735816211657e-06,0.00012895566082293114,0.00014930878300399117
48.66662300000098,0.0,0.0,0.0,-8.817815025612572e-05,0.000670611092660951,0.00015890076640637794
48.71966860000248,0.0,0.0,0.0,0.00012787440692556094,-0.00014816979377044054,2.21446488404236e-05
48.768846800001484,0.0,0.0,0.0,-2.0413046428435003e-05,-0.00012250300306671142,0.0001350238942793771
48.81848990000071,0.0,0.0,0.0,1.2436297597297647e-06,-0.0003325090488100349,0.00019553205187773155
48.86846730000252,0.0,0.0,0.0,1.836615899342241e-05,0.00011536042550313046,1.924473791665079e-06
48.921838400001434,0.0,0.0,0.0,-4.455353786707121e-05,0.00031789875748905986,-1.9248028102311493e-05
48.9661812000013,0.0,0.0,0.0,2.907430805596687e-05,0.00018548698003602917,-4.340186621720352e-05
49.01746650000132,0.0,0.0,0.0,5.574398551504799e-06,0.0006845210082071868,-0.00013750491892127714
49.06797990000268,0.0,0.0,0.0,-0.00013962032504779247,-0.00022690559931503028,-0.00031039838786078855
49.11652580000009,0.0,0.0,0.0,9.67444517582903e-05,-0.0004297428960471117,-0.000375868913802881
49.168760200002,0.0,0.0,0.0,0.00012648339725740263,0.00022515548283297209,-0.00047203113800688807
49.215775399999984,0.0,0.0,0.0,-2.1995677231296685e-05,-0.0008456873214037698,-0.00044063761474291767
49.26765620000151,0.0,0.0,0.0,6.037744693064989e-05,0.00018505434742915362,-0.0003070202555220556
49.318753300001845,0.0,0.0,0.0,-1.5117500963860497e-05,0.0002122472153867677,-0.00022521697201274295
49.36956629999986,0.0,0.0,0.0,4.092735927939651e-05,9.64891881337328e-06,-0.0003794108115806108
49.416968200002884,0.0,0.0,0.0,-6.614369109994089e-05,-0.00044754781056093534,-0.0004188696056606973
49.46381140000085,0.0,0.0,0.0,1.4982813388277615e-05,-0.000241126118573647,-0.0003835740573021891
49.51804390000325,0.0,0.0,0.0,-1.0418136172024629e-05,0.0003206773010550605,-0.000489267607171793
49.56723090000014,0.0,0.0,0.0,-3.889416160890684e-05,0.00014355068246706986,-0.0001055794900415796
49.61585070000001,0.0,0.0,0.0,-7.873670176915955e-06,0.0006530895810983224,8.113732895220619e-05
49.66837960000339,0.0,0.0,0.0,4.463418959471484e-05,-0.0002438757827791561,0.0001240382393641081
49.719924200002424,0.0,0.0,0.0,-2.9858312301367114e-05,-0.0002675766400249064,0.00011308823340425203
49.767141500000434,0.0,0.0,0.0,-6.962193066384016e-05,-0.0001984119630603782,0.00019151177306758703
49.8191994000008,0.0,0.0,0.0,4.5371796191379885e-05,0.0002539868398253693,-0.000370823184928242
49.867813300003036,0.0,0.0,0.0,-6.165278381539133e-05,0.0004442471345767341,-0.0003358977521644778
49.917038600000524,0.0,0.0,0.0,3.272759935592136e-05,-0.00038385710868730057,-0.0004356999633074491
49.96694639999987,0.0,0.0,0.0,3.234857129114766e-05,0.00012820660067641167,-0.0003675963697233618
50.01730270000189,0.0,0.0,0.0,4.555246781296492e-05,-0.00043286311428876326,-0.0001347576859887221
50.068649800003186,0.0,0.0,0.0,-6.528002976634873e-05,-1.4873722225557103e-05,-1.4220545911119965e-05
50.11722050000026,0.0,0.0,0.0,0.00010087448883265445,-9.037662763803045e-05,9.252222425736069e-06
50.16751050000312,0.0,0.0,0.0,-3.638504266034342e-05,0.0005057030196097414,0.00023591588265496212
50.21660770000017,0.0,0.0,0.0,-6.650741116041868e-05,0.001112975925627829,1.18583613739737e-05
50.268854800000554,0.0,0.0,0.0,-2.332009304777056e-05,-0.0011302800158576325,-0.00010584253012015842
50.31754330000331,0.0,0.0,0.0,8.67806262959033e-05,-0.0002185114443202259,-0.0001087989799955935
50.36806500000239,0.0,0.0,0.0,-3.1505520857191664e-05,-0.00023470716221942316,-0.00014231221807399207
50.419512500000565,0.0,0.0,0.0,-5.4420776999994914e-05,0.0005748153938854948,-0.00017563796639017388
50.466868300001806,0.0,0.0,0.0,3.932319605422331e-05,0.00013430625117227934,-3.0818707551595075e-05
50.5213459000006,0.0,0.0,0.0,-1.4068135121316481e-05,-0.0002709771993355091,8.007447385574027e-06
50.56755570000314,0.0,0.0,0.0,4.849860888754339e-06,0.0007793523930349895,-0.00017734464973610228
50.61719820000144,0.0,0.0,0.0,9.94901051747343e-06,-0.00044219025536461126,2.2322530045983498e-05
50.66872490000242,0.0,0.0,0.0,-1.068682680620214e-05,-0.000829693375366803,-0.00013383900880219011
50.71624590000283,0.0,0.0,0.0,3.2130414786433776e-05,0.00012855120607997266,0.0004997561666452823
50.7684362,0.0,0.0,0.0,-6.5242646002228635e-06,0.00047288933983887426,0.00028764326345925357
50.817729400001554,0.0,0.0,0.0,-5.057742419732363e-05,7.938060758791468e-05,0.00044296233834216546
50.86749300000156,0.0,0.0,0.0,-1.1818013725580017e-05,-0.00037768013036336125,0.00023498054707004153
50.916429300003074,0.0,0.0,0.0,2.720725280380232e-05,-2.3037410818994816e-05,0.00026623156393710363
50.967637800000375,0.0,0.0,0.0,3.2227725105394905e-05,0.0002499047527369041,0.00014754189675857826
51.01739960000123,0.0,0.0,0.0,1.4985433569548072e-05,-3.5164562361286936e-05,0.00012419703236700276
51.06836900000053,0.0,0.0,0.0,3.6911839248755275e-05,0.0007611561693421599,0.00023699233731709653
51.11645310000313,0.0,0.0,0.0,-6.960229293123045e-05,-0.0003872105952532215,0.0001964925847528389
51.16860960000122,0.0,0.0,0.0,2.8671455954999095e-06,-0.00011176996391262294,0.00025388899389525545
51.21731510000245,0.0,0.0,0.0,-3.601466098277208e-05,-9.73100821511824e-05,0.00029891702586105597
51.269756300000154,0.0,0.0,0.0,-8.857733013838049e-05,0.000506118543696187,4.418722086265307e-05
51.31955510000262,0.0,0.0,0.0,5.28454518384886e-05,-1.9146297481083653e-05,-0.0002654864227636287
51.36617860000115,0.0,0.0,0.0,2.816454835490554e-05,-0.0001655563869642269,-0.00011525019377103772
51.416648800000985,0.0,0.0,0.0,-3.6689714675865085e-05,-0.0006766424474798634,-1.885309726124815e-05
51.467091400001664,0.0,0.0,0.0,9.836233085242939e-05,0.001099744595960954,6.514334462064083e-05
51.51814220000233,0.0,0.0,0.0,-7.570334225477354e-05,-0.0011605139573404482,8.734423206530863e-05
51.567472100003215,0.0,0.0,0.0,0.00011497418650934647,0.0010498587205972107,0.00015753763862707827
51.61716630000228,0.0,0.0,0.0,-0.00014132094596521833,-0.0008110907367557493,0.00027044518880565646
51.66860970000198,0.0,0.0,0.0,-5.972619253719728e-06,-0.00018635228772880954,0.0003944239522243256
51.71789480000007,0.0,0.0,0.0,0.0001647857344149476,0.0009095106355563817,0.00048168021631912863
51.76640200000111,0.0,0.0,0.0,-3.751768547469593e-05,-0.0003058357097974834,0.00029562801141328106
51.81896660000348,0.0,0.0,0.0,1.127597371690795e-06,-8.555883935136583e-05,0.0003545713618338072
51.870319600002404,0.0,0.0,0.0,-5.8041436809318e-05,-0.000518827362243308,0.00023713532628320876
51.919118400001025,0.0,0.0,0.0,3.480112126749279e-05,0.00022991190005753205,0.00030541439956503313
51.965542700003425,0.0,0.0,0.0,-3.087289451488328e-05,0.0006553025375852317,0.0003621455350334485
52.01803660000223,0.0,0.0,0.0,-3.47825760290626e-05,-0.0005025125054462051,0.000233745042423969
52.066377800001646,0.0,0.0,0.0,4.5395146777535386e-05,0.00018075189664477898,0.00022624960429028186
52.11988250000286,0.0,0.0,0.0,-3.772769182469001e-05,-0.00010473070356287068,0.00010125238010487886
52.168762200002675,0.0,0.0,0.0,3.0358272862846612e-05,-0.00019182846069359857,0.00011048745873483818
52.21855690000302,0.0,0.0,0.0,1.6961964434995727e-06,0.000757697696603376,0.00033616113579951917
52.267623800002184,0.0,0.0,0.0,3.4445920191128358e-06,-0.001279811301599667,-6.030166828989474e-06
52.31722140000056,0.0,0.0,0.0,-2.0564501424042446e-05,0.0006969424605785014,0.00013420864969184237
52.368147500001214,0.0,0.0,0.0,1.4604014126557953e-05,0.00016912153304603973,0.00019881109726382836
52.4176836000006,0.0,0.0,0.0,-1.397020927674307e-05,-0.0006625643362055829,0.0001380157343366284
52.466707999999926,0.0,0.0,0.0,-2.9036210719338288e-05,0.00010185959754152248,3.959911672801141e-05
52.518641300001036,0.0,0.0,0.0,3.0461023463110573e-05,-0.0002190583364604146,5.3881095978335436e-05
52.568392799999856,0.0,0.0,0.0,3.972275906396083e-05,0.0015348345947708817,0.00015796506378073626
52.61773230000108,0.0,0.0,0.0,-6.520289269591184e-05,-0.0012965924415329056,3.3839174531518346e-05
52.667294000002585,0.0,0.0,0.0,4.832438359920009e-05,0.0005157459459135029,8.5702247977584e-05
52.71674230000281,0.0,0.0,0.0,-5.155571435585023e-05,0.00024430820510895444,3.832059570362207e-05
52.768625800003065,0.0,0.0,0.0,0.00010912677569856788,0.00018471441565862774,4.152864587791746e-05
52.81694580000112,0.0,0.0,0.0,-6.229928882198394e-05,-0.0011905766638488082,9.482666361110146e-05
52.86796900000263,0.0,0.0,0.0,-6.9131806866388905e-06,0.000760402243651018,0.00021148638147652036
52.91670990000057,0.0,0.0,0.0,-3.060080416211457e-05,-0.0004844967488622189,8.961380665605392e-06
52.96748200000002,0.0,0.0,0.0,-5.414334469285028e-05,0.0007217429809642379,0.0002599904649557601
53.01876690000063,0.0,0.0,0.0,9.546975455679394e-06,-0.00024356460317122782,0.00047887061389295047
53.06843350000054,0.0,0.0,0.0,1.4672764954127332e-05,0.00023492721648474778,0.0003803536961890292
53.11932860000161,0.0,0.0,0.0,0.00014174120627786748,-0.00027372914407724493,0.00036975958967723325
53.168699100002414,0.0,0.0,0.0,-0.00014941534668557613,-0.0004132928102517516,0.00037547350697351555
53.22409360000165,0.0,0.0,0.0,6.55290499870113e-05,-5.2470842380507706e-05,0.000352216152183741
53.26969940000345,0.0,0.0,0.0,1.330668917013152e-05,0.00022908933672740754,0.0003158776823418378
53.31801110000015,0.0,0.0,0.0,-1.3418404451479448e-05,0.0007868758161113527,0.0004547486922912875
53.36944890000086,0.0,0.0,0.0,2.523389552633585e-05,-0.00053953913509108,0.0002601680654595007
53.42360390000249,0.0,0.0,0.0,4.7408875331591956e-05,-0.0004773012302508057,-0.00023836191576404462
53.46846580000056,0.0,0.0,0.0,-2.07003988688815e-05,1.7776869958045998e-05,-1.4915231978889245e-05
53.51952370000072,0.0,0.0,0.0,4.2115537809635e-05,-2.624646989462341e-05,-0.00016912096283872277
53.56917430000249,0.0,0.0,0.0,5.139758868789727e-05,-0.0002260551035215124,-0.00043479177373279454
53.61911670000336,0.0,0.0,0.0,-3.8456604597392535e-05,-5.1350932490438884e-05,-0.0003010296963334514
53.67215710000164,0.0,0.0,0.0,-3.320760821607214e-06,-3.195183705222971e-05,-0.0002354758969876295
53.72471829999995,0.0,0.0,0.0,1.7963640392419899e-06,0.0004995690710713373,-0.00014609853654052368
53.76855390000128,0.0,0.0,0.0,-4.927776293957067e-05,-0.00032729810594249014,-0.00011468703629449625
53.81757660000221,0.0,0.0,0.0,4.693841658484153e-05,0.00014256497862928666,-0.00014553818156670957
53.870362400000886,0.0,0.0,0.0,-7.7927033184975e-05,-0.0006679461880048961,-0.00019742300875630724
53.91618700000254,0.0,0.0,0.0,-1.4750277343221694e-05,0.00021119949651562193,-8.92055988310671e-05
53.966642300001695,0.0,0.0,0.0,-2.1139635601388533e-05,7.057603426925771e-06,4.5318528132015255e-05
54.016521000001376,0.0,0.0,0.0,0.00010807960019442422,0.0007023377045833564,-1.4503974415443827e-05
54.069331900002,0.0,0.0,0.0,-9.122600523949684e-05,-0.00040581939630875195,-4.81328196573368e-05
54.11921530000109,0.0,0.0,0.0,5.183380591430089e-05,-0.000243677977682563,4.76670110943439e-05
54.165290200002346,0.0,0.0,0.0,-8.056181319762448e-05,0.00011145246568063856,-9.653754276560975e-05
54.216947300003085,0.0,0.0,0.0,8.621860136054444e-05,1.2278140448379958e-05,-1.2909481447724188e-05
54.27039650000006,0.0,0.0,0.0,5.192546361298775e-05,0.0003641058617330816,-8.43746997698572e-05
54.31741640000109,0.0,0.0,0.0,6.884398848904295e-06,-0.0006958134844522746,-5.3172804122565143e-05
54.36748930000249,0.0,0.0,0.0,-6.125916695663808e-05,0.0006833102475481394,-9.230692300231985e-05
54.41679850000219,0.0,0.0,0.0,3.6824914219836085e-06,-0.00042607064975274495,4.692169369151233e-05
54.46618540000054,0.0,0.0,0.0,-2.1414676069947992e-05,0.00022095659537048172,1.752483557326137e-06
54.52057510000304,0.0,0.0,0.0,7.961800607245456e-05,0.0001501202802896899,3.546921040945475e-05
54.56701090000206,0.0,0.0,0.0,-1.8827259739048315e-05,0.00020997476383010277,-0.00019020614005580788
54.61619000000064,0.0,0.0,0.0,-2.2495016616492454e-05,-0.0006778746405688735,3.7780685041290255e-05
54.6688830000021,0.0,0.0,0.0,-3.902564577362306e-06,0.0002324604722048009,2.0340801022736973e-05
54.71866250000312,0.0,0.0,0.0,-3.3431594048845744e-05,-1.1725564369963009e-05,-6.0314403108420815e-05
54.769302900000184,0.0,0.0,0.0,-2.0441322035050083e-06,0.0001133453666649182,-6.699521834885696e-05
54.820105100003275,0.0,0.0,0.0,5.958090609635303e-05,0.0006756931882171802,-4.738993634417867e-05
54.86722130000271,0.0,0.0,0.0,-3.884714633469581e-05,-0.0007848189686377248,-1.674981176686519e-05
54.92027170000074,0.0,0.0,0.0,1.4655862577063395e-05,0.000340364593259224,-7.31774821159577e-05
54.968613100001676,0.0,0.0,0.0,1.5159320419296863e-05,-0.0004270820990635611,-9.727936618859797e-05
55.01693670000168,0.0,0.0,0.0,5.432726690356831e-05,0.0005048616464458616,-1.9236246717839006e-05
55.06615140000213,0.0,0.0,0.0,-0.00010114197018868602,-0.00024116894715929681,-0.00019460336560603967
55.1181800000013,0.0,0.0,0.0,0.00011779448999271558,0.0005190253066379034,-8.243815607624562e-06
55.167891700002656,0.0,0.0,0.0,-7.609274586442773e-05,-0.0008636768171375663,-8.875056499906281e-05
55.217784100001154,0.0,0.0,0.0,-4.591111612111438e-05,-0.0001158472048595644,-7.979880530524063e-05
55.26658959999986,0.0,0.0,0.0,1.8654989571882965e-05,0.0007698758628255021,0.0002836649438239505
55.31670360000135,0.0,0.0,0.0,1.2959925810170544e-05,0.00018663056974954764,0.0002351710491513422
55.3688753000024,0.0,0.0,0.0,-7.144960573315721e-06,0.00011079153806845034,8.692161492790066e-05
55.41691470000296,0.0,0.0,0.0,3.0109660566187537e-05,4.4788443626607175e-05,0.00019078465619046112
55.46764390000317,0.0,0.0,0.0,-6.652401189706421e-05,-0.00015690369482517942,0.000204836140101075
55.517531400000735,0.0,0.0,0.0,-6.856673695986223e-05,-0.00023775453110959994,2.043937258949988e-05
55.56917760000215,0.0,0.0,0.0,8.82700607673961e-05,0.0001470415316198872,0.00021098457348308323
55.615938100003405,0.0,0.0,0.0,9.691974718221349e-06,0.0002819265191013159,0.00021768335017579364
55.66638210000019,0.0,0.0,0.0,2.8233879270604462e-05,-0.0002048764451731915,4.6720388740939754e-05
55.71852829999989,0.0,0.0,0.0,-3.703175520496061e-05,-0.0001048867377088574,6.77926568495908e-05
55.76924080000026,0.0,0.0,0.0,-1.5949605941747942e-05,9.978206112595623e-05,3.1264555567545586e-05
55.817687200000364,0.0,0.0,0.0,5.71856504272337e-06,-0.0005138563548560523,-0.000124572218761202
55.869307500001014,0.0,0.0,0.0,-1.2844394022051444e-05,3.8766723365439747e-05,-9.480888363991915e-05
55.918578900000284,0.0,0.0,0.0,-1.4557126502963002e-06,-0.0002000728671058091,5.202310900647673e-05
55.96763320000173,0.0,0.0,0.0,0.0001133819978581414,0.00022702200763162996,2.6567544028484565e-06
56.01869920000172,0.0,0.0,0.0,-0.00020347468645251583,-0.00019091171094586562,-1.9043141769023476e-05
56.06668730000092,0.0,0.0,0.0,0.00015529972230143304,-4.625761709053533e-05,0.00020047709978403825
56.11574410000321,0.0,0.0,0.0,-3.581036950667555e-05,0.0005775919792060344,8.539275707227566e-05
56.17035250000117,0.0,0.0,0.0,-7.112969538089882e-05,0.000725696723501598,9.76747218488447e-05
56.21782670000175,0.0,0.0,0.0,5.597775510574318e-05,-0.0005386808956987473,0.00029522409422349903
56.26895599999989,0.0,0.0,0.0,-1.70383273876684e-05,-0.0003059183055527968,0.00014690546762763997
56.317868800000724,0.0,0.0,0.0,8.190496890877848e-05,0.0006936383273410699,0.00023354726988531174
56.367199000000255,0.0,0.0,0.0,8.078690528069066e-06,-0.0006682147565597419,0.00022200082066046423
56.41974350000237,0.0,0.0,0.0,-1.3341584191332443e-05,-6.970954021837465e-05,0.00021247033490838925
56.467617500002234,0.0,0.0,0.0,-7.723395737949037e-05,-0.00030214270652058534,2.3955217338525283e-05
56.51557690000118,0.0,0.0,0.0,2.7823628401223612e-05,-2.72766068030746e-05,9.980423130342164e-05
56.566464700001234,0.0,0.0,0.0,-4.686646580320905e-06,0.0005647275513747769,0.00014132162875373937
56.62000059999991,0.0,0.0,0.0,-5.9083335557923634e-05,-0.0005574638742049854,4.800205324512999e-05
56.668192300003284,0.0,0.0,0.0,8.615508909086327e-05,0.0009172607547914529,8.575407593535587e-05
56.71786400000201,0.0,0.0,0.0,2.6265283480531597e-05,-0.000831773035535169,0.00018174823297926524
56.76586010000028,0.0,0.0,0.0,1.1277583587113471e-05,0.00016100709274261124,2.3442249471207652e-05
56.81750180000017,0.0,0.0,0.0,-6.853690749145718e-06,-0.0004469929795891378,3.0206338795297357e-05
56.87023130000307,0.0,0.0,0.0,3.86599292323432e-06,0.0005123414910896934,-3.233981416718003e-05
56.91690440000093,0.0,0.0,0.0,-1.2905661636760112e-05,0.0004493722386078202,7.403978055925508e-05
56.96969880000324,0.0,0.0,0.0,6.303250916789807e-05,-0.0009568563913633025,8.044213446853894e-06
57.017917000001034,0.0,0.0,0.0,-5.207604731253163e-05,-7.216234084127219e-05,3.963661643140925e-05
57.07169010000143,0.0,0.0,0.0,-4.8157284607311365e-05,0.00019666411541772202,4.0396157832337746e-05
57.119634400001814,0.0,0.0,0.0,-1.1748904374246335e-05,0.00040978611371597694,2.0763460407716145e-06
57.16506290000325,0.0,0.0,0.0,4.525637781293677e-05,1.3902462901365753e-05,-0.000149822599643007
57.2181657000001,0.0,0.0,0.0,-9.178770719507215e-07,4.579012835873627e-05,-0.00021427302403769795
57.267168300000776,0.0,0.0,0.0,2.371387666411998e-05,4.71341196336932e-05,-9.086556643911567e-05
57.31897900000331,0.0,0.0,0.0,-2.2261575837802943e-05,0.0001923185693385685,2.015870963245647e-05
57.368327500000305,0.0,0.0,0.0,-0.0001193192288227828,-0.0005301996761164535,2.336385375842244e-05
57.4189890000016,0.0,0.0,0.0,6.276083504497954e-05,1.639976252540696e-05,8.024377660570163e-05
57.47027070000331,0.0,0.0,0.0,3.8057373062737066e-05,-0.00014390243061986654,0.00011297216824157196
57.51874690000113,0.0,0.0,0.0,-6.254365596835779e-05,0.0004758553966678936,0.00021908923111775623
57.56710750000275,0.0,0.0,0.0,7.442436947146898e-05,7.014739040743574e-05,0.00030894963745187724
57.618558800000756,0.0,0.0,0.0,-7.08287335243851e-05,-0.00019894714199836559,0.00029614895436646485
57.667819500002224,0.0,0.0,0.0,4.8999220065855393e-05,-7.649690763149964e-05,0.0004057152638781158
57.71660860000338,0.0,0.0,0.0,4.40914605190473e-05,0.0005652261574769263,0.0003740107984387905
57.769183300002624,0.0,0.0,0.0,-2.287516206481497e-05,-0.0002922246207390402,0.0002795890962691966
57.8170366000013,0.0,0.0,0.0,-3.815535409866362e-05,2.0427896068005477e-05,0.00022332043945310503
57.86716760000127,0.0,0.0,0.0,1.9704144751812333e-05,0.00026650897684235895,0.000253646259378087
57.91757110000253,0.0,0.0,0.0,4.7390809130300635e-05,-0.00028939876341010413,0.00011948085189290497
57.96453870000187,0.0,0.0,0.0,-1.6228701370644686e-05,0.00023413108109834253,0.0002731860497974237
58.01370330000282,0.0,0.0,0.0,-8.673413470183398e-05,0.0001258245616406817,0.0004355806489853512
58.06803670000227,0.0,0.0,0.0,5.436644982279579e-05,0.0004670820910577421,0.000297981077258404
58.11369490000288,0.0,0.0,0.0,4.425232379345072e-05,-0.0008378680006829778,0.00037789718505561783
58.16140000000087,0.0,0.0,0.0,-2.808736297273282e-05,0.00027391824532817444,0.0004080502163569739
58.21128460000182,0.0,0.0,0.0,9.420177593992512e-06,0.00023875870210996334,0.00032281088927442686
58.26284080000187,0.0,0.0,0.0,-5.805099875002142e-05,-0.0006414826810170468,0.0003956636554664551
58.31140620000224,0.0,0.0,0.0,7.698463161527626e-05,0.0005810435633791045,0.00034826956523270776
58.363210999999865,0.0,0.0,0.0,4.6114777482523734e-05,-0.0008820900888481353,0.0003689470623695193
58.41057880000153,0.0,0.0,0.0,-6.859421684563459e-05,0.0006728129678766623,0.00038804311066698493
58.46112490000087,0.0,0.0,0.0,7.583448189037601e-05,0.000536836376524688,0.0003226897769221724
58.51381570000012,0.0,0.0,0.0,-4.483751106415346e-05,-0.0009464413195707376,0.00036029824844781375
58.56456580000304,0.0,0.0,0.0,-1.5092874883635412e-05,0.0019045184919190758,0.00036853933912605035
58.61450750000222,0.0,0.0,0.0,-1.9680307032436044e-05,-0.0019900287483116974,0.00041531628468190825
58.66603130000294,0.0,0.0,0.0,9.963334636940743e-06,3.555671491917538e-06,0.00030294757059499646
58.714375600000494,0.0,0.0,0.0,2.003081866259645e-05,-0.00013612537513984103,0.00028365135638910486
58.761976500001765,0.0,0.0,0.0,9.815905655093585e-06,0.0010145665946264546,0.0004575324945767142
58.80984480000188,0.0,0.0,0.0,-9.788191321434244e-05,-0.0009484225106273222,0.0004071570110736948
58.86050880000039,0.0,0.0,0.0,9.55110090570148e-05,-0.00024884077149266035,-5.9769448243163435e-05
58.910771200000454,0.0,0.0,0.0,-5.896432919342045e-05,0.00030410187685853547,-0.0003513664973360158
58.961868200000026,0.0,0.0,0.0,-6.951506521292389e-05,-0.00027368231855126157,-0.0004703948258455704
59.01184580000336,0.0,0.0,0.0,9.955558038958988e-05,-0.00011589286194961869,-0.00022425482624419113
59.061497800001234,0.0,0.0,0.0,-4.9523266121648284e-05,-2.0917828019775856e-05,-0.00012809716975742264
59.112144600003376,0.0,0.0,0.0,8.715408650952554e-05,-0.00034230748182609137,6.853512291017061e-05
59.163424600003054,0.0,0.0,0.0,8.715648900762114e-06,0.000829523851893943,-2.7293375597731165e-06
59.21347160000005,0.0,0.0,0.0,-1.899800706391664e-05,-6.654444329288896e-05,-1.0433206514438749e-05
59.26038410000183,0.0,0.0,0.0,-8.062244112764364e-05,-0.0003403988757982419,8.718764552775614e-05
59.31209670000317,0.0,0.0,0.0,7.729288605032954e-06,-8.596510191743086e-05,5.2662887858685395e-05
59.361726300001465,0.0,0.0,0.0,-2.139661108267899e-05,0.00014702369527835814,2.7007191944623848e-05
59.413451300002635,0.0,0.0,0.0,1.2459281823154378e-05,0.0002493230934071023,3.0381721641762514e-05
59.46358490000057,0.0,0.0,0.0,3.886379346221956e-05,-6.429296380124683e-05,0.00012860214674126114
59.511748400000215,0.0,0.0,0.0,-5.099794246859499e-05,-7.36182471023326e-05,0.00012544515242434603
59.560103900003014,0.0,0.0,0.0,7.206969562010812e-05,0.0006754618599453866,2.3419102208645526e-05
59.61308690000078,0.0,0.0,0.0,-5.331791780659249e-06,-0.0005804154446412582,5.6457765873400735e-05
59.664865000002465,0.0,0.0,0.0,-6.717500133770902e-05,-0.00021722865493356433,-3.29465056313994e-05
59.71092480000152,0.0,0.0,0.0,0.00016375792307648626,0.0003108566869125072,1.647323887935823e-05
59.76204030000008,0.0,0.0,0.0,-0.0001155934568913234,1.9430057257399863e-05,8.579822805587378e-05
59.81401590000314,0.0,0.0,0.0,-2.0941441842621757e-05,-0.00020753250242220618,5.366704107650499e-05
59.86101340000096,0.0,0.0,0.0,3.614107508195696e-05,-6.879205194020562e-05,-2.261175066412214e-05
59.91151720000198,0.0,0.0,0.0,6.015689982583675e-05,0.00011898410608762054,1.1659670914336705e-05
59.9622769000016,0.0,0.0,0.0,3.974905938680294e-05,-0.0005569760642495067,-7.642331220854311e-05
60.010857600002055,0.0,0.0,0.0,-2.4167084217778124e-05,0.0004965320107193767,-0.00018357513361504492
60.062680800001544,0.0,0.0,0.0,-6.574425562365072e-05,-0.000278876488157813,-0.0002145637546399757
60.11237660000188,0.0,0.0,0.0,-2.3606352127419302e-05,0.00019403197393536595,-4.614140335159306e-05
60.16278140000213,0.0,0.0,0.0,5.9320701427985005e-05,0.00044782630830629967,-3.0410821057223172e-05
60.214372400001594,0.0,0.0,0.0,2.327621508675546e-05,0.00018947583265100122,-0.00011257726372021541
60.26581450000231,0.0,0.0,0.0,-5.875400408302793e-05,-0.0008487379009455122,-0.0001407964906260103
60.310789099999965,0.0,0.0,0.0,-3.0527299022624196e-06,-0.00036312179714427956,-0.0002364265896079564
60.36232270000255,0.0,0.0,0.0,-8.735732127494383e-05,8.981411136242185e-05,-0.0002830859790112742
60.41121820000262,0.0,0.0,0.0,0.00015427016235607395,0.00038527357043188955,-0.00023472030079737274
60.46384030000263,0.0,0.0,0.0,-6.669657522634532e-05,0.0007088932913733931,0.00022057109128514188
60.51194800000303,0.0,0.0,0.0,1.467792919055581e-05,-2.6580268646772488e-05,0.0004053236259762091
60.56076120000216,0.0,0.0,0.0,3.1234553179065766e-05,-0.0001605194682346537,0.0003859472421800873
60.61210560000109,0.0,0.0,0.0,-7.71620805310022e-05,-0.0006150376712548435,0.00040900608348017075
60.66924740000104,0.0,0.0,0.0,3.1606410396166685e-05,-0.00019240713505861776,0.00020780660371723928
60.7119629000008,0.0,0.0,0.0,4.7554353301310515e-05,0.0006112349908167519,0.000172956088842596
60.76208930000212,0.0,0.0,0.0,-3.213755224817956e-05,-0.0005325517370474511,1.0490686860115049e-05
60.81054310000036,0.0,0.0,0.0,1.4014369877265487e-05,0.00039077415217118823,0.00020275717884164627
60.86108670000249,0.0,0.0,0.0,-9.508015000738307e-05,4.0889564836033185e-05,0.00023130459329278582
60.91471369999999,0.0,0.0,0.0,7.20633553030459e-05,-3.242936027130975e-05,-4.969895906923967e-05
60.96129180000207,0.0,0.0,0.0,-4.333962488892941e-05,5.8474088979932685e-05,-0.00030618824979982486
61.013896000000386,0.0,0.0,0.0,1.6177555745181443e-05,-0.00020001305722789606,-0.00027964819938428064
61.06214720000207,0.0,0.0,0.0,-8.233260152322488e-05,-0.0001030372323072208,4.5568595272813865e-05
